// Start Time: Unknown: 
// Update Rate: 60.0Hz 
// Filter Profile: human (46.1) 
// Firmware Version: 4.6.0
PacketCounter	SampleTimeFine	Year	Month	Day	Second	UTC_Nano	UTC_Year	UTC_Month	UTC_Day	UTC_Hour	UTC_Minute	UTC_Second	UTC_Valid	Acc_X	Acc_Y	Acc_Z	Mat[1][1]	Mat[2][1]	Mat[3][1]	Mat[1][2]	Mat[2][2]	Mat[3][2]	Mat[1][3]	Mat[2][3]	Mat[3][3] 
3598														-0.095452	0.083863	9.771966	-0.994089	0.108161	-0.009353	-0.108220	-0.994109	0.005996	-0.008649	0.006973	0.999938	
3599														-0.080144	0.070234	9.786791	-0.994089	0.108164	-0.009348	-0.108222	-0.994109	0.005981	-0.008646	0.006957	0.999938	
3600														-0.094345	0.055101	9.772576	-0.994087	0.108180	-0.009362	-0.108239	-0.994107	0.005994	-0.008658	0.006972	0.999938	
3601														-0.080306	0.070273	9.757497	-0.994090	0.108152	-0.009373	-0.108211	-0.994110	0.005993	-0.008670	0.006971	0.999938	
3602														-0.080523	0.086059	9.801121	-0.994092	0.108136	-0.009398	-0.108195	-0.994112	0.005974	-0.008697	0.006955	0.999938	
3603														-0.080492	0.086043	9.786475	-0.994090	0.108153	-0.009367	-0.108211	-0.994110	0.005993	-0.008663	0.006971	0.999938	
3604														-0.079755	0.071543	9.772138	-0.994090	0.108153	-0.009350	-0.108212	-0.994110	0.006010	-0.008645	0.006987	0.999938	
3605														-0.079497	0.072302	9.786781	-0.994088	0.108171	-0.009364	-0.108230	-0.994108	0.006024	-0.008658	0.007002	0.999938	
3606														-0.080178	0.086991	9.771823	-0.994091	0.108143	-0.009391	-0.108202	-0.994111	0.006020	-0.008685	0.007001	0.999938	
3607														-0.078565	0.044148	9.802039	-0.994089	0.108160	-0.009407	-0.108220	-0.994109	0.006049	-0.008697	0.007031	0.999937	
3608														-0.093892	0.057578	9.757921	-0.994087	0.108180	-0.009383	-0.108239	-0.994107	0.006006	-0.008678	0.006986	0.999938	
3609														-0.064534	0.074431	9.801291	-0.994085	0.108198	-0.009387	-0.108258	-0.994104	0.006051	-0.008676	0.007031	0.999938	
3610														-0.093902	0.073272	9.772252	-0.994087	0.108184	-0.009381	-0.108243	-0.994106	0.006036	-0.008673	0.007016	0.999938	
3611														-0.078883	0.074610	9.801415	-0.994088	0.108173	-0.009378	-0.108232	-0.994107	0.006036	-0.008670	0.007015	0.999938	
3612														-0.079536	0.088982	9.771810	-0.994088	0.108175	-0.009392	-0.108234	-0.994107	0.006049	-0.008682	0.007030	0.999938	
3613														-0.078859	0.075032	9.786765	-0.994086	0.108192	-0.009389	-0.108252	-0.994105	0.006049	-0.008679	0.007030	0.999938	
3614														-0.093277	0.074766	9.786893	-0.994086	0.108193	-0.009368	-0.108252	-0.994105	0.006036	-0.008660	0.007015	0.999938	
3615														-0.077623	0.045958	9.772748	-0.994087	0.108181	-0.009382	-0.108240	-0.994106	0.006049	-0.008672	0.007029	0.999938	
3616														-0.092988	0.075502	9.786890	-0.994088	0.108171	-0.009366	-0.108231	-0.994107	0.006067	-0.008654	0.007044	0.999938	
3617														-0.092811	0.075554	9.772245	-0.994088	0.108173	-0.009347	-0.108232	-0.994107	0.006069	-0.008636	0.007044	0.999938	
3618														-0.092475	0.076246	9.786889	-0.994086	0.108190	-0.009346	-0.108249	-0.994105	0.006084	-0.008633	0.007060	0.999938	
3619														-0.091907	0.061828	9.787204	-0.994087	0.108180	-0.009354	-0.108239	-0.994107	0.006052	-0.008644	0.007029	0.999938	
3620														-0.062932	0.077918	9.801274	-0.994086	0.108196	-0.009351	-0.108255	-0.994105	0.006052	-0.008641	0.007029	0.999938	
3621														-0.092376	0.076582	9.772242	-0.994087	0.108182	-0.009363	-0.108241	-0.994106	0.006051	-0.008653	0.007028	0.999938	
3622														-0.062411	0.063625	9.786943	-0.994087	0.108184	-0.009362	-0.108244	-0.994106	0.006066	-0.008651	0.007044	0.999938	
3623														-0.091662	0.062606	9.772556	-0.994088	0.108173	-0.009357	-0.108232	-0.994107	0.006051	-0.008648	0.007028	0.999938	
3624														-0.077831	0.092990	9.786433	-0.994089	0.108160	-0.009371	-0.108219	-0.994109	0.006065	-0.008660	0.007043	0.999938	
3625														-0.076303	0.048980	9.772744	-0.994086	0.108194	-0.009349	-0.108253	-0.994105	0.006036	-0.008641	0.007013	0.999938	
3626														-0.091573	0.077983	9.772238	-0.994084	0.108213	-0.009318	-0.108272	-0.994103	0.006056	-0.008608	0.007029	0.999938	
3627														-0.076475	0.079426	9.801396	-0.994084	0.108217	-0.009328	-0.108276	-0.994103	0.006039	-0.008620	0.007013	0.999938	
3628														-0.076597	0.079320	9.786750	-0.994083	0.108219	-0.009340	-0.108278	-0.994102	0.006037	-0.008632	0.007013	0.999938	
3629														-0.076143	0.064653	9.772424	-0.994085	0.108206	-0.009336	-0.108265	-0.994104	0.006037	-0.008628	0.007012	0.999938	
3630														-0.090711	0.064518	9.772553	-0.994088	0.108178	-0.009350	-0.108237	-0.994107	0.006051	-0.008640	0.007027	0.999938	
3631														-0.076460	0.080346	9.786742	-0.994089	0.108165	-0.009362	-0.108224	-0.994108	0.006049	-0.008652	0.007026	0.999938	
3632														-0.075855	0.065680	9.772419	-0.994089	0.108166	-0.009328	-0.108225	-0.994108	0.006053	-0.008618	0.007027	0.999938	
3633														-0.076245	0.081011	9.786739	-0.994087	0.108182	-0.009388	-0.108242	-0.994106	0.006061	-0.008677	0.007042	0.999938	
3634														-0.090697	0.065582	9.757900	-0.994090	0.108154	-0.009369	-0.108213	-0.994109	0.006063	-0.008658	0.007041	0.999938	
3635														-0.090283	0.066280	9.772545	-0.994088	0.108171	-0.009353	-0.108230	-0.994107	0.006081	-0.008640	0.007057	0.999938	
3636														-0.089824	0.067384	9.801832	-0.994088	0.108174	-0.009352	-0.108233	-0.994107	0.006096	-0.008637	0.007072	0.999938	
3637														-0.089875	0.067424	9.787186	-0.994088	0.108177	-0.009364	-0.108236	-0.994107	0.006095	-0.008649	0.007072	0.999938	
3638														-0.089878	0.067716	9.787184	-0.994089	0.108164	-0.009376	-0.108224	-0.994108	0.006093	-0.008661	0.007071	0.999937	
3639														-0.075407	0.067781	9.757763	-0.994090	0.108152	-0.009370	-0.108212	-0.994109	0.006077	-0.008658	0.007055	0.999938	
3640														-0.089778	0.067824	9.772539	-0.994087	0.108185	-0.009367	-0.108244	-0.994106	0.006078	-0.008654	0.007056	0.999938	
3641														-0.074823	0.069139	9.801694	-0.994090	0.108157	-0.009375	-0.108216	-0.994109	0.006046	-0.008666	0.007024	0.999938	
3642														-0.075381	0.083512	9.786724	-0.994091	0.108145	-0.009370	-0.108204	-0.994110	0.006030	-0.008662	0.007009	0.999938	
3643														-0.089287	0.068736	9.787183	-0.994092	0.108133	-0.009355	-0.108192	-0.994112	0.006063	-0.008645	0.007039	0.999938	
3644														-0.088993	0.069107	9.787183	-0.994067	0.108372	-0.009311	-0.108430	-0.994086	0.005967	-0.008609	0.006941	0.999939	
3645														-0.073934	0.070102	9.801694	-0.994063	0.108407	-0.009291	-0.108465	-0.994082	0.005953	-0.008591	0.006926	0.999939	
3646														-0.073837	0.070070	9.787050	-0.994060	0.108434	-0.009290	-0.108492	-0.994079	0.005969	-0.008588	0.006941	0.999939	
3647														-0.102968	0.069267	9.787319	-0.994058	0.108453	-0.009283	-0.108510	-0.994078	0.005938	-0.008584	0.006911	0.999939	
3648														-0.074229	0.084338	9.757434	-0.994056	0.108476	-0.009263	-0.108534	-0.994075	0.005925	-0.008566	0.006896	0.999940	
3649														-0.073466	0.069521	9.743120	-0.994053	0.108502	-0.009228	-0.108559	-0.994072	0.005914	-0.008531	0.006881	0.999940	
3650														-0.072331	0.055778	9.772738	-0.994054	0.108495	-0.009210	-0.108552	-0.994073	0.005916	-0.008513	0.006881	0.999940	
3651														-0.073467	0.084528	9.742792	-0.994055	0.108490	-0.009218	-0.108546	-0.994074	0.005884	-0.008525	0.006849	0.999940	
3652														-0.087583	0.085160	9.786861	-0.994056	0.108479	-0.009200	-0.108535	-0.994075	0.005886	-0.008507	0.006850	0.999940	
3653														-0.087071	0.069820	9.743259	-0.994058	0.108467	-0.009167	-0.108524	-0.994076	0.005890	-0.008474	0.006850	0.999941	
3654														-0.056006	0.042811	9.787577	-0.994056	0.108483	-0.009147	-0.108539	-0.994075	0.005877	-0.008455	0.006834	0.999941	
3655														-0.071842	0.070782	9.743123	-0.994057	0.108473	-0.009143	-0.108529	-0.994076	0.005877	-0.008451	0.006834	0.999941	
3656														-0.086424	0.086460	9.801505	-0.994056	0.108486	-0.009153	-0.108542	-0.994075	0.005860	-0.008463	0.006818	0.999941	
3657														-0.085613	0.056402	9.758235	-0.994059	0.108456	-0.009135	-0.108512	-0.994078	0.005861	-0.008445	0.006818	0.999941	
3658														-0.070922	0.057472	9.772738	-0.994061	0.108438	-0.009191	-0.108495	-0.994080	0.005839	-0.008503	0.006801	0.999941	
3659														-0.086381	0.087521	9.816142	-0.994060	0.108442	-0.009190	-0.108498	-0.994079	0.005854	-0.008500	0.006816	0.999941	
3660														-0.056813	0.073212	9.772264	-0.994063	0.108415	-0.009184	-0.108471	-0.994082	0.005838	-0.008497	0.006800	0.999941	
3661														-0.085417	0.057824	9.772873	-0.994066	0.108393	-0.009182	-0.108449	-0.994085	0.005853	-0.008494	0.006814	0.999941	
3662														-0.085142	0.058381	9.787517	-0.994065	0.108396	-0.009176	-0.108452	-0.994085	0.005823	-0.008490	0.006783	0.999941	
3663														-0.071538	0.088058	9.772067	-0.994065	0.108398	-0.009175	-0.108454	-0.994084	0.005838	-0.008488	0.006798	0.999941	
3664														-0.085780	0.072925	9.757893	-0.994068	0.108369	-0.009201	-0.108425	-0.994088	0.005834	-0.008514	0.006797	0.999941	
3665														-0.069757	0.045151	9.787709	-0.994068	0.108368	-0.009183	-0.108424	-0.994088	0.005837	-0.008496	0.006798	0.999941	
3666														-0.085362	0.073925	9.772534	-0.994070	0.108355	-0.009181	-0.108411	-0.994089	0.005852	-0.008493	0.006813	0.999941	
3667														-0.085618	0.089120	9.786843	-0.994070	0.108358	-0.009174	-0.108413	-0.994089	0.005822	-0.008489	0.006782	0.999941	
3668														-0.070504	0.074892	9.772393	-0.994070	0.108354	-0.009189	-0.108410	-0.994089	0.005835	-0.008502	0.006797	0.999941	
3669														-0.084595	0.059831	9.758223	-0.994072	0.108340	-0.009172	-0.108396	-0.994091	0.005852	-0.008484	0.006812	0.999941	
3670														-0.070090	0.076121	9.787032	-0.994073	0.108323	-0.009186	-0.108379	-0.994092	0.005865	-0.008496	0.006826	0.999941	
3671														-0.084252	0.076645	9.816459	-0.994075	0.108312	-0.009152	-0.108369	-0.994093	0.005869	-0.008462	0.006826	0.999941	
3672														-0.084010	0.060863	9.758222	-0.994072	0.108334	-0.009162	-0.108390	-0.994091	0.005852	-0.008474	0.006811	0.999941	
3673														-0.069244	0.061955	9.772723	-0.994075	0.108310	-0.009173	-0.108366	-0.994094	0.005850	-0.008485	0.006810	0.999941	
3674														-0.083830	0.061983	9.787506	-0.994069	0.108358	-0.009199	-0.108414	-0.994089	0.005831	-0.008512	0.006794	0.999941	
3675														-0.083889	0.062009	9.772861	-0.994073	0.108326	-0.009184	-0.108382	-0.994092	0.005864	-0.008494	0.006824	0.999941	
3676														-0.069031	0.062914	9.772719	-0.994071	0.108342	-0.009179	-0.108398	-0.994090	0.005849	-0.008491	0.006809	0.999941	
3677														-0.084211	0.077308	9.772518	-0.994069	0.108362	-0.009208	-0.108418	-0.994088	0.005860	-0.008518	0.006824	0.999940	
3678														-0.098316	0.062506	9.772997	-0.994069	0.108365	-0.009205	-0.108422	-0.994088	0.005860	-0.008515	0.006824	0.999940	
3679														-0.069227	0.078705	9.787018	-0.994068	0.108371	-0.009182	-0.108427	-0.994087	0.005832	-0.008496	0.006793	0.999941	
3680														-0.082714	0.049194	9.787840	-0.994067	0.108375	-0.009213	-0.108432	-0.994087	0.005859	-0.008524	0.006823	0.999940	
3681														-0.097749	0.063810	9.787639	-0.994069	0.108362	-0.009182	-0.108419	-0.994088	0.005878	-0.008490	0.006838	0.999941	
3682														-0.082965	0.064643	9.787496	-0.994066	0.108384	-0.009207	-0.108440	-0.994086	0.005859	-0.008517	0.006822	0.999940	
3683														-0.068329	0.065401	9.787352	-0.994066	0.108386	-0.009203	-0.108442	-0.994085	0.005859	-0.008514	0.006822	0.999940	
3684														-0.083027	0.064882	9.772849	-0.994068	0.108372	-0.009218	-0.108428	-0.994087	0.005872	-0.008527	0.006837	0.999940	
3685														-0.068786	0.080350	9.772362	-0.994069	0.108358	-0.009197	-0.108414	-0.994089	0.005859	-0.008508	0.006821	0.999941	
3686														-0.082378	0.065749	9.787494	-0.994068	0.108376	-0.009164	-0.108432	-0.994087	0.005863	-0.008475	0.006821	0.999941	
3687														-0.053015	0.066855	9.772562	-0.994067	0.108383	-0.009178	-0.108440	-0.994086	0.005876	-0.008487	0.006836	0.999941	
3688														-0.068070	0.081590	9.787002	-0.994068	0.108375	-0.009187	-0.108431	-0.994087	0.005859	-0.008498	0.006821	0.999941	
3689														-0.096933	0.065740	9.772990	-0.994064	0.108408	-0.009199	-0.108464	-0.994083	0.005857	-0.008510	0.006820	0.999941	
3690														-0.081814	0.067357	9.802133	-0.994066	0.108394	-0.009168	-0.108450	-0.994085	0.005876	-0.008477	0.006836	0.999941	
3691														-0.067163	0.067992	9.787343	-0.994068	0.108368	-0.009196	-0.108425	-0.994087	0.005887	-0.008504	0.006849	0.999940	
3692														-0.096367	0.067269	9.787630	-0.994070	0.108355	-0.009178	-0.108411	-0.994089	0.005889	-0.008486	0.006849	0.999941	
3693														-0.092805	0.071158	9.783845	-0.994070	0.108356	-0.009189	-0.108412	-0.994089	0.005879	-0.008498	0.006841	0.999940	
3694														-0.089243	0.075048	9.780061	-0.994069	0.108357	-0.009200	-0.108414	-0.994089	0.005870	-0.008510	0.006832	0.999940	
3695														-0.081511	0.068472	9.787482	-0.994069	0.108359	-0.009196	-0.108415	-0.994088	0.005855	-0.008507	0.006817	0.999941	
3696														-0.067007	0.068883	9.772692	-0.994072	0.108332	-0.009222	-0.108389	-0.994091	0.005851	-0.008534	0.006816	0.999940	
3697														-0.081516	0.069053	9.787478	-0.994073	0.108320	-0.009220	-0.108377	-0.994093	0.005866	-0.008531	0.006831	0.999940	
3698														-0.052151	0.070020	9.772544	-0.994073	0.108324	-0.009198	-0.108380	-0.994092	0.005838	-0.008512	0.006800	0.999941	
3699														-0.067195	0.084325	9.772339	-0.994072	0.108328	-0.009212	-0.108385	-0.994092	0.005851	-0.008524	0.006815	0.999940	
3700														-0.081076	0.069864	9.787476	-0.994073	0.108328	-0.009209	-0.108384	-0.994092	0.005852	-0.008521	0.006815	0.999940	
3701														-0.081561	0.084793	9.787124	-0.994071	0.108346	-0.009222	-0.108402	-0.994090	0.005850	-0.008533	0.006815	0.999940	
3702														-0.066297	0.071008	9.787327	-0.994070	0.108349	-0.009219	-0.108405	-0.994090	0.005849	-0.008530	0.006814	0.999940	
3703														-0.095351	0.070199	9.787619	-0.994070	0.108350	-0.009200	-0.108406	-0.994089	0.005852	-0.008512	0.006814	0.999941	
3704														-0.066562	0.086232	9.786973	-0.994073	0.108323	-0.009227	-0.108379	-0.994092	0.005848	-0.008539	0.006813	0.999940	
3705														-0.094859	0.055865	9.773324	-0.994071	0.108340	-0.009226	-0.108397	-0.994090	0.005863	-0.008536	0.006828	0.999940	
3706														-0.079870	0.057152	9.787821	-0.994067	0.108375	-0.009208	-0.108432	-0.994087	0.005865	-0.008518	0.006829	0.999940	
3707														-0.094905	0.071171	9.772972	-0.994069	0.108366	-0.009189	-0.108422	-0.994088	0.005867	-0.008499	0.006828	0.999941	
3708														-0.079694	0.056954	9.758534	-0.994068	0.108368	-0.009199	-0.108424	-0.994087	0.005850	-0.008510	0.006813	0.999941	
3709														-0.079353	0.057892	9.787821	-0.994068	0.108372	-0.009196	-0.108428	-0.994087	0.005850	-0.008507	0.006812	0.999941	
3710														-0.079767	0.072820	9.787465	-0.994069	0.108359	-0.009192	-0.108415	-0.994088	0.005850	-0.008504	0.006812	0.999941	
3711														-0.094316	0.072049	9.772971	-0.994068	0.108376	-0.009171	-0.108432	-0.994087	0.005821	-0.008485	0.006781	0.999941	
3712														-0.093395	0.057923	9.787971	-0.994071	0.108347	-0.009167	-0.108402	-0.994090	0.005821	-0.008482	0.006780	0.999941	
3713														-0.093802	0.072716	9.772971	-0.994069	0.108365	-0.009139	-0.108421	-0.994088	0.005870	-0.008449	0.006826	0.999941	
3714														-0.078947	0.073650	9.772821	-0.994066	0.108397	-0.009148	-0.108453	-0.994084	0.005838	-0.008461	0.006796	0.999941	
3715														-0.078602	0.074519	9.802107	-0.994069	0.108369	-0.009145	-0.108425	-0.994087	0.005838	-0.008458	0.006795	0.999941	
3716														-0.092797	0.058891	9.773326	-0.994072	0.108343	-0.009141	-0.108398	-0.994090	0.005838	-0.008455	0.006795	0.999941	
3717														-0.089523	0.073939	9.776592	-0.994071	0.108345	-0.009130	-0.108401	-0.994090	0.005832	-0.008444	0.006787	0.999941	
3718														-0.086249	0.088987	9.779858	-0.994071	0.108348	-0.009118	-0.108404	-0.994090	0.005825	-0.008433	0.006779	0.999941	
3719														-0.077645	0.060265	9.773176	-0.994071	0.108352	-0.009131	-0.108408	-0.994089	0.005839	-0.008445	0.006794	0.999941	
3720														-0.092704	0.074627	9.772967	-0.994072	0.108341	-0.009111	-0.108396	-0.994091	0.005825	-0.008426	0.006779	0.999942	
3721														-0.088617	0.067764	9.776769	-0.994071	0.108351	-0.009116	-0.108407	-0.994089	0.005832	-0.008431	0.006786	0.999941	
3722														-0.084529	0.060902	9.780571	-0.994070	0.108362	-0.009122	-0.108418	-0.994088	0.005838	-0.008435	0.006793	0.999941	
3723														-0.077134	0.061442	9.773172	-0.994074	0.108320	-0.009116	-0.108376	-0.994093	0.005823	-0.008431	0.006777	0.999941	
3724														-0.091559	0.061456	9.787966	-0.994074	0.108322	-0.009128	-0.108378	-0.994093	0.005821	-0.008443	0.006776	0.999941	
3725														-0.061852	0.047886	9.773379	-0.994077	0.108294	-0.009140	-0.108350	-0.994096	0.005819	-0.008456	0.006775	0.999941	
3726														-0.076928	0.062683	9.787810	-0.994075	0.108313	-0.009154	-0.108369	-0.994094	0.005832	-0.008468	0.006790	0.999941	
3727														-0.076796	0.063419	9.802451	-0.994074	0.108316	-0.009165	-0.108372	-0.994093	0.005831	-0.008480	0.006789	0.999941	
3728														-0.106642	0.076977	9.802392	-0.994076	0.108304	-0.009171	-0.108359	-0.994095	0.005783	-0.008491	0.006743	0.999941	
3729														-0.076856	0.063263	9.787807	-0.994077	0.108291	-0.009170	-0.108347	-0.994096	0.005798	-0.008488	0.006757	0.999941	
3730														-0.077435	0.078187	9.787443	-0.994078	0.108277	-0.009195	-0.108332	-0.994098	0.005779	-0.008515	0.006741	0.999941	
3731														-0.076923	0.063405	9.773161	-0.994076	0.108295	-0.009177	-0.108351	-0.994096	0.005781	-0.008497	0.006741	0.999941	
3732														-0.077216	0.078627	9.787441	-0.994079	0.108267	-0.009187	-0.108322	-0.994099	0.005763	-0.008509	0.006724	0.999941	
3733														-0.091263	0.063268	9.773313	-0.994081	0.108255	-0.009169	-0.108310	-0.994100	0.005765	-0.008491	0.006724	0.999941	
3734														-0.047497	0.065067	9.758210	-0.994082	0.108242	-0.009215	-0.108297	-0.994102	0.005790	-0.008534	0.006753	0.999941	
3735														-0.120772	0.078144	9.802537	-0.994080	0.108263	-0.009175	-0.108318	-0.994100	0.005748	-0.008499	0.006707	0.999941	
3736														-0.076118	0.064944	9.787802	-0.994089	0.108177	-0.009169	-0.108232	-0.994109	0.005747	-0.008494	0.006706	0.999941	
3737														-0.075898	0.065385	9.787801	-0.994089	0.108181	-0.009154	-0.108237	-0.994108	0.005780	-0.008475	0.006737	0.999941	
3738														-0.090532	0.065025	9.773309	-0.994092	0.108155	-0.009169	-0.108210	-0.994111	0.005808	-0.008487	0.006766	0.999941	
3739														-0.075540	0.066498	9.787796	-0.994090	0.108173	-0.009138	-0.108228	-0.994109	0.005827	-0.008453	0.006782	0.999941	
3740														-0.090392	0.080850	9.787584	-0.994090	0.108176	-0.009117	-0.108232	-0.994109	0.005814	-0.008435	0.006767	0.999942	
3741														-0.075090	0.066724	9.773154	-0.994090	0.108179	-0.009116	-0.108234	-0.994108	0.005829	-0.008432	0.006781	0.999941	
3742														-0.074516	0.067846	9.802439	-0.994088	0.108197	-0.009083	-0.108253	-0.994106	0.005833	-0.008398	0.006782	0.999942	
3743														-0.075017	0.082105	9.772785	-0.994088	0.108200	-0.009066	-0.108256	-0.994106	0.005850	-0.008380	0.006797	0.999942	
3744														-0.074359	0.067840	9.773151	-0.994091	0.108172	-0.009093	-0.108228	-0.994109	0.005846	-0.008407	0.006796	0.999942	
3745														-0.089073	0.067546	9.773305	-0.994087	0.108205	-0.009105	-0.108261	-0.994105	0.005844	-0.008419	0.006796	0.999941	
3746														-0.089659	0.082098	9.758291	-0.994087	0.108209	-0.009087	-0.108264	-0.994105	0.005846	-0.008401	0.006796	0.999942	
3747														-0.075413	0.113527	9.786674	-0.994087	0.108211	-0.009037	-0.108267	-0.994104	0.005960	-0.008339	0.006903	0.999941	
3748														-0.089019	0.098887	9.772556	-0.994117	0.107941	-0.009004	-0.107997	-0.994133	0.005993	-0.008304	0.006931	0.999942	
3749														-0.083666	-0.016982	9.804829	-0.994125	0.107868	-0.008999	-0.107924	-0.994141	0.005993	-0.008300	0.006929	0.999942	
3750														-0.072748	0.070932	9.773142	-0.994123	0.107886	-0.008996	-0.107942	-0.994139	0.005993	-0.008297	0.006929	0.999942	
3751														-0.087019	0.071015	9.787943	-0.994124	0.107874	-0.008978	-0.107930	-0.994140	0.005995	-0.008278	0.006929	0.999942	
3752														-0.087474	0.086017	9.787567	-0.994122	0.107891	-0.008992	-0.107947	-0.994138	0.006008	-0.008291	0.006944	0.999942	
3753														-0.087551	0.086080	9.772921	-0.994120	0.107909	-0.008991	-0.107965	-0.994136	0.006024	-0.008288	0.006959	0.999941	
3754														-0.100550	0.056907	9.788476	-0.994115	0.107958	-0.008956	-0.108014	-0.994131	0.006013	-0.008254	0.006945	0.999942	
3755														-0.100930	0.071537	9.773458	-0.994108	0.108022	-0.008942	-0.108078	-0.994124	0.006045	-0.008237	0.006976	0.999942	
3756														-0.101093	0.086794	9.787724	-0.994087	0.108223	-0.008921	-0.108278	-0.994103	0.006002	-0.008219	0.006933	0.999942	
3757														-0.055848	0.059630	9.802639	-0.994083	0.108256	-0.008960	-0.108311	-0.994099	0.005966	-0.008261	0.006901	0.999942	
3758														-0.056286	0.058929	9.773352	-0.994087	0.108213	-0.008969	-0.108269	-0.994104	0.005949	-0.008272	0.006885	0.999942	
3759														-0.086607	0.087522	9.787561	-0.994095	0.108140	-0.008978	-0.108196	-0.994112	0.005932	-0.008284	0.006868	0.999942	
3760														-0.070692	0.058920	9.788155	-0.994098	0.108113	-0.008970	-0.108168	-0.994115	0.005901	-0.008280	0.006837	0.999942	
3761														-0.086600	0.087569	9.787561	-0.994107	0.108025	-0.009007	-0.108080	-0.994125	0.005865	-0.008321	0.006804	0.999942	
3762														-0.100851	0.072759	9.802738	-0.994131	0.107800	-0.009060	-0.107855	-0.994149	0.005841	-0.008377	0.006784	0.999942	
3763														-0.101517	0.087836	9.817000	-0.994216	0.107014	-0.009059	-0.107069	-0.994235	0.005821	-0.008384	0.006757	0.999942	
3764														-0.118651	0.129590	9.757455	-0.994394	0.105347	-0.009063	-0.105402	-0.994413	0.005811	-0.008400	0.006734	0.999942	
3765														-0.023731	-0.027308	9.760652	-0.994533	0.104030	-0.009059	-0.104085	-0.994551	0.005820	-0.008404	0.006731	0.999942	
3766														-0.086371	0.074022	9.802571	-0.994612	0.103273	-0.009065	-0.103328	-0.994630	0.005846	-0.008412	0.006751	0.999942	
3767														-0.086692	0.073276	9.758641	-0.994693	0.102486	-0.009053	-0.102542	-0.994711	0.005858	-0.008404	0.006755	0.999942	
3768														-0.099539	0.044304	9.788847	-0.994757	0.101867	-0.009054	-0.101922	-0.994775	0.005839	-0.008412	0.006731	0.999942	
3769														-0.130860	0.086905	9.788028	-0.994825	0.101202	-0.009057	-0.101257	-0.994843	0.005835	-0.008420	0.006722	0.999942	
3770														-0.177660	0.143085	9.772347	-0.994937	0.100096	-0.009041	-0.100151	-0.994955	0.005846	-0.008410	0.006722	0.999942	
3771														-0.149234	0.158765	9.786294	-0.995128	0.098172	-0.009066	-0.098225	-0.995148	0.005663	-0.008466	0.006526	0.999943	
3772														-0.087626	0.103010	9.787171	-0.995335	0.096062	-0.008989	-0.096116	-0.995353	0.005784	-0.008391	0.006621	0.999943	
3773														-0.093748	0.221006	9.769458	-0.995565	0.093647	-0.008973	-0.093702	-0.995583	0.005943	-0.008377	0.006757	0.999942	
3774														-0.152725	0.218005	9.755450	-0.995811	0.090990	-0.008979	-0.091045	-0.995829	0.005928	-0.008402	0.006720	0.999942	
3775														-0.113803	0.059878	9.803274	-0.996082	0.087983	-0.008965	-0.088037	-0.996100	0.005913	-0.008409	0.006679	0.999942	
3776														-0.158999	0.070061	9.759458	-0.996380	0.084534	-0.008954	-0.084588	-0.996399	0.005850	-0.008427	0.006587	0.999943	
3777														-0.132513	0.336719	9.795981	-0.996687	0.080839	-0.008936	-0.080893	-0.996705	0.005879	-0.008431	0.006583	0.999943	
3778														-0.169052	0.422388	9.793983	-0.997005	0.076823	-0.008930	-0.076877	-0.997023	0.005920	-0.008449	0.006589	0.999943	
3779														0.043153	0.320001	9.780101	-0.997312	0.072747	-0.008803	-0.072800	-0.997329	0.005852	-0.008354	0.006477	0.999944	
3780														-0.000169	-0.065539	9.790944	-0.997567	0.069156	-0.008792	-0.069208	-0.997585	0.005789	-0.008370	0.006383	0.999945	
3781														-0.029259	-0.069016	9.761992	-0.997824	0.065350	-0.008794	-0.065402	-0.997843	0.005739	-0.008400	0.006301	0.999945	
3782														0.463444	0.196008	9.794264	-0.998116	0.060734	-0.008725	-0.060786	-0.998134	0.005845	-0.008354	0.006364	0.999945	
3783														-0.154327	0.364229	9.751358	-0.998436	0.055257	-0.008465	-0.055313	-0.998448	0.006442	-0.008096	0.006900	0.999943	
3784														-0.209531	0.354787	9.796058	-0.998763	0.049050	-0.008162	-0.049115	-0.998761	0.007974	-0.007761	0.008365	0.999935	
3785														-0.250923	0.047333	9.776185	-0.999000	0.043954	-0.008198	-0.044020	-0.998998	0.008035	-0.007837	0.008387	0.999934	
3786														-0.096179	-0.024609	9.776864	-0.999248	0.037893	-0.008234	-0.037960	-0.999247	0.008075	-0.007922	0.008382	0.999933	
3787														-0.380698	-0.234526	9.814991	-0.999448	0.032217	-0.008149	-0.032281	-0.999447	0.007915	-0.007890	0.008174	0.999935	
3788														-0.071067	0.021319	9.789896	-0.999603	0.026978	-0.008137	-0.027043	-0.999603	0.007965	-0.007918	0.008182	0.999935	
3789														-0.108401	0.193484	9.770417	-0.999731	0.021660	-0.008255	-0.021725	-0.999732	0.007957	-0.008081	0.008134	0.999934	
3790														-0.183981	0.198303	9.785551	-0.999837	0.016068	-0.008183	-0.016133	-0.999839	0.007918	-0.008054	0.008049	0.999935	
3791														-0.259093	0.202126	9.800700	-0.999913	0.010351	-0.008186	-0.010416	-0.999915	0.007889	-0.008104	0.007973	0.999935	
3792														-0.168718	0.183274	9.771164	-0.999957	0.004650	-0.008083	-0.004713	-0.999958	0.007851	-0.008046	0.007889	0.999937	
3793														-0.108038	0.073628	9.788602	-0.999967	-0.001085	-0.008060	0.001022	-0.999969	0.007870	-0.008068	0.007861	0.999937	
3794														0.048376	-0.169397	9.794640	-0.999942	-0.007112	-0.008040	0.007049	-0.999945	0.007779	-0.008095	0.007722	0.999937	
3795														0.031246	-0.053008	9.805938	-0.999878	-0.013447	-0.007979	0.013384	-0.999880	0.007813	-0.008083	0.007705	0.999938	
3796														-0.060670	0.227056	9.739576	-0.999766	-0.020104	-0.007969	0.020042	-0.999769	0.007765	-0.008123	0.007604	0.999938	
3797														-0.152379	0.405923	9.793452	-0.999613	-0.026656	-0.007980	0.026594	-0.999616	0.007792	-0.008184	0.007577	0.999938	
3798														-0.091364	0.056702	9.730291	-0.999422	-0.033097	-0.007813	0.033037	-0.999425	0.007633	-0.008061	0.007371	0.999940	
3799														-0.132119	-0.112991	9.838322	-0.999184	-0.039620	-0.007854	0.039560	-0.999188	0.007659	-0.008152	0.007342	0.999940	
3800														-0.196663	0.140504	9.787094	-0.998870	-0.046876	-0.007772	0.046817	-0.998875	0.007567	-0.008118	0.007195	0.999941	
3801														0.029041	0.200559	9.798279	-0.998481	-0.054534	-0.007886	0.054474	-0.998487	0.007554	-0.008286	0.007113	0.999940	
3802														-0.065810	0.286741	9.796286	-0.998045	-0.062008	-0.007858	0.061948	-0.998050	0.007703	-0.008320	0.007201	0.999939	
3803														-0.061824	0.122383	9.757326	-0.997532	-0.069771	-0.007834	0.069711	-0.997537	0.007713	-0.008353	0.007148	0.999940	
3804														-0.113875	0.021588	9.804723	-0.996923	-0.077992	-0.007801	0.077932	-0.996929	0.007706	-0.008378	0.007074	0.999940	
3805														-0.049718	0.065587	9.788285	-0.996231	-0.086381	-0.007872	0.086321	-0.996238	0.007649	-0.008503	0.006941	0.999940	
3806														-0.047264	0.050512	9.774062	-0.995504	-0.094386	-0.007919	0.094326	-0.995512	0.007657	-0.008606	0.006876	0.999939	
3807														0.009235	0.124379	9.756789	-0.994768	-0.101865	-0.007804	0.101806	-0.994776	0.007550	-0.008532	0.006716	0.999941	
3808														-0.063104	-0.060047	9.792222	-0.994042	-0.108718	-0.007793	0.108659	-0.994050	0.007611	-0.008574	0.006719	0.999941	
3809														-0.014784	-0.122473	9.808582	-0.993335	-0.115002	-0.007728	0.114943	-0.993343	0.007600	-0.008551	0.006661	0.999941	
3810														-0.024763	0.024916	9.745431	-0.992670	-0.120612	-0.007735	0.120554	-0.992678	0.007622	-0.008598	0.006633	0.999941	
3811														0.015507	-0.008177	9.790227	-0.992055	-0.125562	-0.007751	0.125504	-0.992064	0.007539	-0.008636	0.006507	0.999942	
3812														-0.028557	0.040216	9.788935	-0.991485	-0.129992	-0.007715	0.129934	-0.991494	0.007582	-0.008635	0.006515	0.999941	
3813														-0.128444	-0.035273	9.762481	-0.990926	-0.134191	-0.007651	0.134134	-0.990934	0.007581	-0.008599	0.006486	0.999942	
3814														-0.198887	0.050822	9.774774	-0.990351	-0.138374	-0.007602	0.138317	-0.990359	0.007594	-0.008580	0.006469	0.999942	
3815														-0.082073	0.071319	9.802901	-0.989771	-0.142465	-0.007571	0.142407	-0.989779	0.007638	-0.008582	0.006482	0.999942	
3816														-0.043430	0.143561	9.771135	-0.989189	-0.146447	-0.007587	0.146390	-0.989198	0.007606	-0.008618	0.006413	0.999942	
3817														-0.144605	0.173038	9.770651	-0.988570	-0.150578	-0.007462	0.150523	-0.988578	0.007513	-0.008508	0.006304	0.999944	
3818														-0.201320	0.062243	9.759763	-0.987904	-0.154893	-0.007305	0.154838	-0.987911	0.007602	-0.008394	0.006379	0.999944	
3819														-0.059057	-0.091733	9.793327	-0.987166	-0.159528	-0.007356	0.159473	-0.987174	0.007536	-0.008464	0.006267	0.999945	
3820														-0.156322	-0.124120	9.780104	-0.986426	-0.164039	-0.007364	0.163984	-0.986434	0.007563	-0.008504	0.006253	0.999944	
3821														-0.016295	-0.030773	9.805894	-0.985734	-0.168153	-0.007330	0.168097	-0.985741	0.007653	-0.008513	0.006312	0.999944	
3822														0.048719	0.005353	9.760530	-0.985186	-0.171334	-0.007328	0.171279	-0.985193	0.007595	-0.008521	0.006227	0.999944	
3823														0.035672	-0.091842	9.763684	-0.984733	-0.173920	-0.007274	0.173866	-0.984740	0.007569	-0.008479	0.006189	0.999945	
3824														-0.019838	-0.017791	9.761551	-0.984341	-0.176127	-0.007286	0.176072	-0.984348	0.007576	-0.008507	0.006175	0.999945	
3825														-0.130894	0.039047	9.818803	-0.983994	-0.178057	-0.007227	0.178003	-0.984001	0.007584	-0.008461	0.006176	0.999945	
3826														-0.117162	0.089096	9.787843	-0.983687	-0.179744	-0.007202	0.179690	-0.983694	0.007532	-0.008438	0.006115	0.999946	
3827														-0.066842	0.121444	9.757305	-0.983385	-0.181387	-0.007237	0.181333	-0.983392	0.007618	-0.008499	0.006179	0.999945	
3828														-0.070410	0.043190	9.759842	-0.983070	-0.183088	-0.007181	0.183034	-0.983077	0.007596	-0.008451	0.006153	0.999945	
3829														-0.020937	-0.139492	9.809514	-0.982751	-0.184792	-0.007231	0.184737	-0.982758	0.007652	-0.008521	0.006185	0.999945	
3830														-0.017596	-0.061010	9.777689	-0.982505	-0.186098	-0.007196	0.186043	-0.982512	0.007678	-0.008499	0.006205	0.999945	
3831														-0.075204	0.059324	9.788689	-0.982294	-0.187207	-0.007225	0.187152	-0.982301	0.007706	-0.008540	0.006218	0.999944	
3832														-0.101550	0.221525	9.798198	-0.982091	-0.188269	-0.007210	0.188214	-0.982098	0.007672	-0.008526	0.006178	0.999945	
3833														-0.104605	0.141889	9.786123	-0.981825	-0.189650	-0.007222	0.189595	-0.981833	0.007592	-0.008530	0.006085	0.999945	
3834														-0.101269	0.002615	9.775966	-0.981484	-0.191411	-0.007148	0.191357	-0.981491	0.007646	-0.008479	0.006136	0.999945	
3835														-0.093197	0.068428	9.773831	-0.981139	-0.193173	-0.007135	0.193118	-0.981145	0.007716	-0.008491	0.006192	0.999945	
3836														-0.075863	0.106127	9.772547	-0.980784	-0.194965	-0.007185	0.194910	-0.980791	0.007665	-0.008542	0.006117	0.999945	
3837														-0.074517	0.060046	9.774047	-0.980451	-0.196634	-0.007113	0.196579	-0.980458	0.007718	-0.008492	0.006169	0.999945	
3838														-0.079962	-0.049929	9.806979	-0.980140	-0.198181	-0.007105	0.198127	-0.980146	0.007698	-0.008490	0.006137	0.999945	
3839														-0.118750	0.012592	9.775761	-0.979844	-0.199636	-0.007085	0.199582	-0.979851	0.007647	-0.008469	0.006079	0.999946	
3840														-0.114927	0.045091	9.774690	-0.979556	-0.201047	-0.007079	0.200993	-0.979563	0.007658	-0.008474	0.006078	0.999946	
3841														-0.218780	0.116847	9.802030	-0.979222	-0.202669	-0.006993	0.202615	-0.979228	0.007665	-0.008401	0.006089	0.999946	
3842														-0.047172	0.117339	9.772116	-0.978819	-0.204610	-0.007010	0.204556	-0.978825	0.007628	-0.008422	0.006033	0.999946	
3843														-0.025099	0.141419	9.771253	-0.978459	-0.206323	-0.007014	0.206270	-0.978465	0.007638	-0.008439	0.006026	0.999946	
3844														-0.038878	0.136365	9.771466	-0.978090	-0.208066	-0.007004	0.208013	-0.978097	0.007601	-0.008432	0.005978	0.999947	
3845														-0.050639	0.085488	9.787831	-0.977743	-0.209687	-0.007010	0.209634	-0.977750	0.007611	-0.008450	0.005972	0.999946	
3846														-0.109471	-0.046234	9.807008	-0.977418	-0.211201	-0.006957	0.211149	-0.977425	0.007574	-0.008400	0.005934	0.999947	
3847														-0.121598	0.026194	9.760718	-0.977033	-0.212974	-0.006913	0.212921	-0.977040	0.007628	-0.008379	0.005981	0.999947	
3848														-0.188689	0.079903	9.788492	-0.976582	-0.215034	-0.006912	0.214982	-0.976588	0.007620	-0.008389	0.005956	0.999947	
3849														-0.153388	0.031138	9.804652	-0.976046	-0.217457	-0.006828	0.217405	-0.976052	0.007639	-0.008326	0.005971	0.999948	
3850														-0.182287	0.144217	9.771696	-0.975527	-0.219773	-0.006856	0.219721	-0.975533	0.007555	-0.008349	0.005864	0.999948	
3851														-0.130882	0.054629	9.803792	-0.975037	-0.221936	-0.006809	0.221885	-0.975044	0.007530	-0.008310	0.005831	0.999948	
3852														-0.152198	0.107597	9.758148	-0.974505	-0.224266	-0.006757	0.224215	-0.974511	0.007535	-0.008275	0.005828	0.999949	
3853														-0.119111	0.185170	9.784806	-0.973896	-0.226899	-0.006667	0.226848	-0.973900	0.007613	-0.008221	0.005902	0.999949	
3854														-0.095019	0.164030	9.785436	-0.973199	-0.229865	-0.006741	0.229813	-0.973205	0.007650	-0.008319	0.005896	0.999948	
3855														-0.075903	0.076850	9.773622	-0.972484	-0.232873	-0.006678	0.232821	-0.972489	0.007651	-0.008276	0.005886	0.999948	
3856														-0.066931	0.017136	9.775588	-0.971767	-0.235849	-0.006678	0.235798	-0.971772	0.007624	-0.008288	0.005834	0.999949	
3857														-0.103650	0.144463	9.771449	-0.971025	-0.238885	-0.006630	0.238834	-0.971030	0.007625	-0.008260	0.005821	0.999949	
3858														-0.091117	0.038602	9.774947	-0.970255	-0.241996	-0.006627	0.241945	-0.970260	0.007613	-0.008272	0.005783	0.999949	
3859														-0.034961	0.095030	9.802226	-0.969493	-0.245029	-0.006625	0.244979	-0.969499	0.007617	-0.008289	0.005761	0.999949	
3860														-0.067728	0.096850	9.787600	-0.968730	-0.248031	-0.006591	0.247980	-0.968735	0.007634	-0.008279	0.005761	0.999949	
3861														-0.013387	0.008590	9.790427	-0.968028	-0.250759	-0.006520	0.250709	-0.968033	0.007590	-0.008215	0.005712	0.999950	
3862														-0.037020	-0.082235	9.778884	-0.967306	-0.253530	-0.006416	0.253481	-0.967311	0.007559	-0.008123	0.005685	0.999951	
3863														0.008259	0.001199	9.790633	-0.966605	-0.256194	-0.006287	0.256146	-0.966609	0.007481	-0.007993	0.005621	0.999952	
3864														-0.105105	-0.065177	9.778528	-0.966017	-0.258406	-0.006142	0.258359	-0.966020	0.007541	-0.007882	0.005698	0.999953	
3865														-0.178179	0.030429	9.775533	-0.965370	-0.260813	-0.006091	0.260766	-0.965373	0.007499	-0.007836	0.005651	0.999953	
3866														-0.161177	0.245892	9.782888	-0.964730	-0.263173	-0.005998	0.263127	-0.964733	0.007408	-0.007736	0.005569	0.999955	
3867														-0.163951	0.179760	9.770465	-0.964141	-0.265324	-0.006008	0.265278	-0.964143	0.007447	-0.007768	0.005586	0.999954	
3868														-0.003742	-0.069163	9.763803	-0.963488	-0.267685	-0.005998	0.267639	-0.963490	0.007498	-0.007786	0.005619	0.999954	
3869														-0.046923	-0.007409	9.776507	-0.962792	-0.270180	-0.005958	0.270134	-0.962794	0.007517	-0.007767	0.005628	0.999954	
3870														-0.012793	0.024458	9.775354	-0.962127	-0.272538	-0.005967	0.272492	-0.962129	0.007508	-0.007787	0.005598	0.999954	
3871														-0.012990	0.024098	9.760714	-0.961511	-0.274701	-0.006009	0.274654	-0.961514	0.007503	-0.007839	0.005564	0.999954	
3872														-0.070359	0.078788	9.773648	-0.960887	-0.276876	-0.005992	0.276830	-0.960890	0.007479	-0.007828	0.005528	0.999954	
3873														-0.022298	0.149742	9.771136	-0.960271	-0.279006	-0.005942	0.278961	-0.960273	0.007498	-0.007798	0.005543	0.999954	
3874														-0.031080	0.066111	9.788677	-0.959579	-0.281377	-0.005944	0.281331	-0.959581	0.007582	-0.007837	0.005603	0.999954	
3875														-0.051692	0.040460	9.774953	-0.958823	-0.283942	-0.005979	0.283895	-0.958825	0.007589	-0.007888	0.005579	0.999953	
3876														-0.052283	0.007876	9.776073	-0.958056	-0.286518	-0.005939	0.286472	-0.958059	0.007577	-0.007860	0.005558	0.999954	
3877														-0.103461	0.081372	9.788316	-0.957263	-0.289155	-0.006002	0.289109	-0.957266	0.007586	-0.007939	0.005527	0.999953	
3878														-0.149007	0.140885	9.786352	-0.956409	-0.291970	-0.006017	0.291923	-0.956412	0.007592	-0.007972	0.005504	0.999953	
3879														-0.188277	0.154397	9.785953	-0.955463	-0.295052	-0.005951	0.295005	-0.955465	0.007606	-0.007930	0.005512	0.999953	
3880														-0.306190	0.162440	9.815176	-0.954478	-0.298221	-0.005963	0.298175	-0.954481	0.007564	-0.007947	0.005441	0.999954	
3881														-0.169262	0.113642	9.772641	-0.953284	-0.302017	-0.005945	0.301971	-0.953287	0.007578	-0.007956	0.005428	0.999954	
3882														-0.090908	0.054858	9.789195	-0.951988	-0.306079	-0.005955	0.306033	-0.951991	0.007562	-0.007984	0.005376	0.999954	
3883														-0.071251	0.113062	9.772504	-0.950669	-0.310150	-0.005876	0.310105	-0.950673	0.007509	-0.007915	0.005316	0.999955	
3884														-0.005234	0.114932	9.801680	-0.949417	-0.313966	-0.005778	0.313921	-0.949419	0.007562	-0.007859	0.005366	0.999955	
3885														-0.065574	0.199640	9.798833	-0.948142	-0.317794	-0.005855	0.317749	-0.948145	0.007522	-0.007942	0.005272	0.999955	
3886														-0.193024	0.313147	9.736401	-0.946902	-0.321470	-0.005838	0.321425	-0.946905	0.007537	-0.007951	0.005260	0.999955	
3887														-0.037119	0.017000	9.805116	-0.945534	-0.325471	-0.005844	0.325425	-0.945537	0.007568	-0.007989	0.005254	0.999954	
3888														-0.078995	0.056588	9.803770	-0.943698	-0.330710	-0.005815	0.330665	-0.943702	0.007497	-0.007967	0.005153	0.999955	
3889														-0.120872	0.096176	9.802424	-0.941862	-0.335949	-0.005785	0.335905	-0.941867	0.007427	-0.007944	0.005052	0.999956	
3890														-0.148062	0.037083	9.775134	-0.939728	-0.341875	-0.005735	0.341831	-0.939732	0.007368	-0.007909	0.004963	0.999956	
3891														-0.159013	-0.004972	9.732606	-0.937422	-0.348148	-0.005687	0.348104	-0.937427	0.007383	-0.007901	0.004941	0.999957	
3892														-0.069304	0.046341	9.774774	-0.935050	-0.354469	-0.005671	0.354426	-0.935055	0.007370	-0.007915	0.004881	0.999957	
3893														-0.032922	-0.017101	9.791619	-0.932713	-0.360574	-0.005693	0.360532	-0.932718	0.007317	-0.007948	0.004772	0.999957	
3894														-0.164441	0.092180	9.773136	-0.930467	-0.366332	-0.005662	0.366289	-0.930472	0.007382	-0.007973	0.004795	0.999957	
3895														-0.214065	0.234125	9.797483	-0.928148	-0.372168	-0.005599	0.372125	-0.928153	0.007444	-0.007968	0.004826	0.999957	
3896														-0.172557	0.189976	9.784356	-0.925725	-0.378156	-0.005623	0.378113	-0.925730	0.007392	-0.008001	0.004717	0.999957	
3897														-0.147705	0.032739	9.775155	-0.923329	-0.383969	-0.005669	0.383926	-0.923334	0.007382	-0.008069	0.004640	0.999957	
3898														-0.085741	0.070134	9.773887	-0.920601	-0.390462	-0.005699	0.390420	-0.920608	0.007330	-0.008108	0.004523	0.999957	
3899														-0.038091	0.187329	9.799177	-0.917794	-0.397016	-0.005625	0.396974	-0.917801	0.007357	-0.008083	0.004519	0.999957	
3900														-0.153444	0.148309	9.785691	-0.914931	-0.403570	-0.005641	0.403528	-0.914938	0.007272	-0.008096	0.004377	0.999958	
3901														-0.204101	0.062369	9.788552	-0.912005	-0.410141	-0.005647	0.410099	-0.912012	0.007264	-0.008130	0.004309	0.999958	
3902														-0.131550	0.002870	9.761415	-0.909068	-0.416610	-0.005655	0.416569	-0.909075	0.007257	-0.008164	0.004241	0.999958	
3903														-0.005403	0.051852	9.789282	-0.906522	-0.422122	-0.005639	0.422081	-0.906530	0.007163	-0.008136	0.004114	0.999958	
3904														-0.001065	0.019077	9.775780	-0.903787	-0.427946	-0.005634	0.427905	-0.903795	0.007219	-0.008181	0.004114	0.999958	
3905														-0.086048	0.014121	9.775739	-0.901222	-0.433321	-0.005585	0.433281	-0.901231	0.007154	-0.008134	0.004027	0.999959	
3906														-0.054392	0.071041	9.773831	-0.898143	-0.439668	-0.005598	0.439628	-0.898152	0.007118	-0.008157	0.003932	0.999959	
3907														0.063205	0.082519	9.773787	-0.894594	-0.446846	-0.005498	0.446806	-0.894603	0.007108	-0.008095	0.003902	0.999960	
3908														-0.097764	0.129647	9.756982	-0.890703	-0.454550	-0.005611	0.454510	-0.890713	0.007144	-0.008245	0.003813	0.999959	
3909														-0.055834	0.071925	9.817747	-0.886427	-0.462836	-0.005566	0.462796	-0.886436	0.007081	-0.008211	0.003701	0.999959	
3910														-0.131526	-0.096736	9.808611	-0.881516	-0.472122	-0.005570	0.472084	-0.881526	0.006925	-0.008180	0.003475	0.999961	
3911														-0.237160	-0.200782	9.767729	-0.876849	-0.480733	-0.005593	0.480695	-0.876860	0.006966	-0.008253	0.003420	0.999960	
3912														-0.075568	-0.002207	9.790838	-0.871510	-0.490346	-0.005592	0.490309	-0.871522	0.006887	-0.008251	0.003260	0.999961	
3913														-0.340870	0.047460	9.817087	-0.865964	-0.500075	-0.005570	0.500037	-0.865976	0.006912	-0.008280	0.003201	0.999961	
3914														-0.209306	0.113618	9.786085	-0.860589	-0.509269	-0.005554	0.509232	-0.860602	0.006899	-0.008293	0.003108	0.999961	
3915														-0.096452	0.226518	9.782771	-0.855012	-0.518579	-0.005527	0.518543	-0.855024	0.006852	-0.008279	0.002993	0.999961	
3916														0.002345	0.041920	9.789714	-0.849123	-0.528166	-0.005478	0.528130	-0.849136	0.006844	-0.008266	0.002918	0.999962	
3917														-0.110536	0.059475	9.788397	-0.843615	-0.536921	-0.005448	0.536885	-0.843628	0.006768	-0.008230	0.002784	0.999962	
3918														-0.067127	0.097462	9.787346	-0.838110	-0.545474	-0.005448	0.545439	-0.838124	0.006714	-0.008229	0.002656	0.999963	
3919														-0.105900	-0.098363	9.793778	-0.832027	-0.554709	-0.005293	0.554676	-0.832040	0.006639	-0.008086	0.002588	0.999964	
3920														-0.153845	-0.046716	9.776968	-0.825920	-0.563763	-0.005295	0.563730	-0.825933	0.006566	-0.008075	0.002438	0.999964	
3921														-0.140936	0.065480	9.773181	-0.820019	-0.572312	-0.005325	0.572278	-0.820033	0.006627	-0.008159	0.002387	0.999964	
3922														0.003558	0.105443	9.802236	-0.814750	-0.579788	-0.005340	0.579755	-0.814764	0.006520	-0.008131	0.002216	0.999964	
3923														-0.142219	0.269278	9.766156	-0.809486	-0.587114	-0.005366	0.587082	-0.809501	0.006448	-0.008130	0.002070	0.999965	
3924														-0.217806	0.360595	9.777061	-0.804295	-0.594206	-0.005273	0.594176	-0.804310	0.006365	-0.008023	0.001986	0.999966	
3925														-0.154578	0.214189	9.753218	-0.799175	-0.601076	-0.005229	0.601046	-0.799189	0.006294	-0.007962	0.001887	0.999967	
3926														-0.064040	0.248977	9.811457	-0.794068	-0.607807	-0.005165	0.607778	-0.794082	0.006250	-0.007900	0.001824	0.999967	
3927														-0.102344	0.141840	9.770743	-0.788413	-0.615124	-0.005155	0.615096	-0.788428	0.006168	-0.007858	0.001692	0.999968	
3928														-0.196014	-0.071070	9.791639	-0.782680	-0.622403	-0.005142	0.622376	-0.782695	0.006038	-0.007783	0.001526	0.999969	
3929														-0.106755	-0.152130	9.765807	-0.777323	-0.629081	-0.005180	0.629054	-0.777339	0.005959	-0.007776	0.001374	0.999969	
3930														-0.043688	0.007021	9.775732	-0.772004	-0.635596	-0.005224	0.635570	-0.772021	0.005929	-0.007801	0.001257	0.999969	
3931														-0.077073	0.170563	9.784605	-0.766141	-0.642652	-0.005184	0.642626	-0.766157	0.005857	-0.007736	0.001156	0.999969	
3932														-0.040121	0.215459	9.798153	-0.760178	-0.649695	-0.005090	0.649670	-0.760195	0.005803	-0.007640	0.001104	0.999970	
3933														-0.109999	0.176902	9.769385	-0.754170	-0.656660	-0.004996	0.656635	-0.754186	0.005811	-0.007584	0.001102	0.999971	
3934														-0.102728	-0.094829	9.749104	-0.748007	-0.663672	-0.005029	0.663648	-0.748023	0.005697	-0.007543	0.000924	0.999971	
3935														-0.104339	0.019083	9.759956	-0.741592	-0.670833	-0.004968	0.670809	-0.741608	0.005731	-0.007529	0.000917	0.999971	
3936														-0.047778	0.068042	9.788278	-0.734956	-0.678097	-0.004979	0.678074	-0.734972	0.005610	-0.007464	0.000747	0.999972	
3937														-0.259039	0.006973	9.787799	-0.728290	-0.685251	-0.004979	0.685229	-0.728307	0.005535	-0.007419	0.000619	0.999972	
3938														-0.266319	-0.081437	9.761209	-0.722012	-0.691863	-0.004902	0.691842	-0.722029	0.005439	-0.007302	0.000535	0.999973	
3939														-0.178288	-0.037198	9.804735	-0.715465	-0.698631	-0.004935	0.698610	-0.715482	0.005487	-0.007365	0.000478	0.999973	
3940														-0.101339	0.068415	9.802217	-0.708560	-0.705633	-0.004965	0.705612	-0.708577	0.005471	-0.007379	0.000373	0.999973	
3941														-0.002605	0.284284	9.781826	-0.700994	-0.713151	-0.004851	0.713130	-0.701011	0.005409	-0.007258	0.000332	0.999974	
3942														-0.023211	0.102383	9.787444	-0.693437	-0.720501	-0.004787	0.720481	-0.693454	0.005394	-0.007206	0.000292	0.999974	
3943														-0.084815	-0.015033	9.790411	-0.685731	-0.727840	-0.004746	0.727820	-0.685747	0.005356	-0.007152	0.000219	0.999974	
3944														-0.063263	-0.063875	9.806889	-0.677504	-0.735504	-0.004709	0.735485	-0.677520	0.005270	-0.007067	0.000107	0.999975	
3945														-0.159778	-0.002966	9.759620	-0.669281	-0.742994	-0.004671	0.742976	-0.669298	0.005200	-0.006989	0.000010	0.999976	
3946														-0.136340	0.034617	9.817336	-0.661318	-0.750092	-0.004611	0.750074	-0.661334	0.005123	-0.006892	-0.000070	0.999976	
3947														-0.620845	-0.067250	9.799024	-0.653477	-0.756932	-0.004600	0.756920	-0.653493	0.004335	-0.006288	-0.000648	0.999980	
3948														-0.157647	-0.196516	9.721412	-0.646526	-0.762879	-0.004480	0.762867	-0.646541	0.004288	-0.006168	-0.000646	0.999981	
3949														-0.162762	-0.060642	9.790247	-0.639260	-0.768972	-0.005338	0.768962	-0.639281	0.004177	-0.006624	-0.001435	0.999977	
3950														-0.342696	-0.081047	9.831984	-0.631885	-0.775044	-0.005335	0.775034	-0.631906	0.004110	-0.006557	-0.001538	0.999977	
3951														-0.389712	-0.176856	9.716812	-0.625191	-0.780454	-0.005294	0.780444	-0.625212	0.004146	-0.006545	-0.001540	0.999977	
3952														-0.238540	0.007451	9.801453	-0.618797	-0.785533	-0.005330	0.785524	-0.618817	0.004129	-0.006542	-0.001632	0.999977	
3953														0.276380	0.377759	9.813021	-0.612345	-0.790572	-0.005401	0.790564	-0.612366	0.004062	-0.006519	-0.001783	0.999977	
3954														0.186483	0.275829	9.785423	-0.604898	-0.796284	-0.005433	0.796276	-0.604919	0.004045	-0.006507	-0.001879	0.999977	
3955														0.037359	-0.009297	9.776854	-0.597462	-0.801879	-0.005391	0.801871	-0.597484	0.004049	-0.006468	-0.001904	0.999977	
3956														-0.015026	0.083136	9.787960	-0.590576	-0.806963	-0.005494	0.806956	-0.590598	0.004014	-0.006484	-0.002063	0.999977	
3957														0.034844	0.221520	9.814078	-0.583802	-0.811877	-0.005537	0.811870	-0.583824	0.004055	-0.006524	-0.002128	0.999976	
3958														-0.034002	-0.087657	9.792618	-0.577589	-0.816309	-0.005548	0.816302	-0.577611	0.004084	-0.006538	-0.002170	0.999976	
3959														-0.069960	-0.168268	9.750362	-0.571788	-0.820383	-0.005522	0.820376	-0.571811	0.004066	-0.006493	-0.002206	0.999976	
3960														0.316739	0.104878	9.719812	-0.566108	-0.824313	-0.005492	0.824305	-0.566131	0.004145	-0.006526	-0.002181	0.999976	
3961														0.326365	0.491766	9.811508	-0.559653	-0.828710	-0.005381	0.828702	-0.559675	0.004140	-0.006443	-0.002142	0.999977	
3962														0.002188	0.060853	9.789023	-0.552492	-0.833501	-0.005229	0.833493	-0.552514	0.004234	-0.006418	-0.002019	0.999977	
3963														-0.022434	-0.437986	9.759099	-0.545854	-0.837865	-0.005008	0.837856	-0.545874	0.004281	-0.006320	-0.001860	0.999978	
3964														0.022184	0.072270	9.774475	-0.539380	-0.842049	-0.004869	0.842040	-0.539399	0.004262	-0.006216	-0.001801	0.999979	
3965														0.017725	-0.049740	9.807290	-0.533369	-0.845870	-0.004612	0.845861	-0.533387	0.004308	-0.006104	-0.001603	0.999980	
3966														0.239612	-0.091463	9.768591	-0.527847	-0.849327	-0.004574	0.849318	-0.527865	0.004301	-0.006067	-0.001614	0.999980	
3967														-0.010896	-0.159993	9.839358	-0.522873	-0.852399	-0.004410	0.852390	-0.522889	0.004338	-0.006003	-0.001491	0.999981	
3968														0.247830	-0.151975	9.741322	-0.518817	-0.854874	-0.004325	0.854864	-0.518833	0.004394	-0.006000	-0.001417	0.999981	
3969														0.276969	0.249148	9.774177	-0.513332	-0.858180	-0.004218	0.858170	-0.513348	0.004355	-0.005902	-0.001384	0.999982	
3970														0.490450	0.608680	9.767723	-0.507014	-0.861927	-0.004230	0.861918	-0.507030	0.004235	-0.005796	-0.001499	0.999982	
3971														-0.039827	0.545981	9.803651	-0.500041	-0.865994	-0.003660	0.865983	-0.500053	0.004399	-0.005640	-0.000970	0.999984	
3972														0.015204	-0.283768	9.785032	-0.494476	-0.869184	-0.003719	0.869174	-0.494488	0.004217	-0.005505	-0.001147	0.999984	
3973														-0.693504	-0.934885	9.761131	-0.489368	-0.872069	-0.003949	0.872061	-0.489381	0.003880	-0.005316	-0.001545	0.999985	
3974														0.230528	-0.267174	9.773622	-0.484196	-0.874951	-0.003892	0.874944	-0.484209	0.003863	-0.005265	-0.001534	0.999985	
3975														0.134699	-0.277602	9.786815	-0.477872	-0.878421	-0.003864	0.878413	-0.477885	0.003944	-0.005312	-0.001510	0.999985	
3976														-0.043675	-0.355106	9.770985	-0.471908	-0.881640	-0.003835	0.881632	-0.471921	0.003906	-0.005254	-0.001537	0.999985	
3977														-0.085614	-0.061333	9.835041	-0.466341	-0.884597	-0.003785	0.884590	-0.466354	0.003893	-0.005209	-0.001533	0.999985	
3978														-0.309084	-0.099307	9.743830	-0.460761	-0.887516	-0.003742	0.887510	-0.460774	0.003763	-0.005064	-0.001587	0.999986	
3979														-0.723048	0.291386	9.783291	-0.455504	-0.890226	-0.003631	0.890220	-0.455516	0.003685	-0.004934	-0.001554	0.999987	
3980														0.116924	0.184212	9.831963	-0.450559	-0.892740	-0.003621	0.892734	-0.450570	0.003589	-0.004836	-0.001615	0.999987	
3981														-0.114087	0.330107	9.779371	-0.445825	-0.895113	-0.003539	0.895107	-0.445836	0.003645	-0.004841	-0.001543	0.999987	
3982														-0.008775	-0.037814	9.733244	-0.440197	-0.897895	-0.003422	0.897889	-0.440208	0.003632	-0.004767	-0.001474	0.999988	
3983														0.302586	-0.278017	9.790156	-0.434227	-0.900797	-0.003512	0.900791	-0.434238	0.003569	-0.004740	-0.001614	0.999987	
3984														0.070064	-0.134969	9.781496	-0.428463	-0.903552	-0.003590	0.903547	-0.428474	0.003639	-0.004826	-0.001685	0.999987	
3985														-0.029302	-0.167959	9.780402	-0.422775	-0.906228	-0.003590	0.906222	-0.422786	0.003565	-0.004749	-0.001746	0.999987	
3986														-0.037618	-0.188022	9.780787	-0.417232	-0.908773	-0.003566	0.908767	-0.417243	0.003626	-0.004783	-0.001728	0.999987	
3987														-0.045934	-0.208086	9.781171	-0.411689	-0.911318	-0.003542	0.911312	-0.411701	0.003686	-0.004818	-0.001710	0.999987	
3988														-0.036211	0.395736	9.823272	-0.405999	-0.913867	-0.003569	0.913861	-0.406011	0.003629	-0.004766	-0.001788	0.999987	
3989														-0.003248	0.477018	9.821769	-0.400437	-0.916317	-0.003652	0.916312	-0.400449	0.003636	-0.004795	-0.001890	0.999987	
3990														-0.019052	0.041707	9.774792	-0.394900	-0.918717	-0.003707	0.918711	-0.394912	0.003664	-0.004830	-0.001959	0.999986	
3991														0.068245	-0.355526	9.772805	-0.389388	-0.921066	-0.003810	0.921061	-0.389401	0.003701	-0.004893	-0.002068	0.999986	
3992														-0.061591	-0.340269	9.769571	-0.383996	-0.923327	-0.003801	0.923322	-0.384009	0.003695	-0.004871	-0.002090	0.999986	
3993														-0.094918	-0.092816	9.776774	-0.378540	-0.925576	-0.003928	0.925572	-0.378554	0.003660	-0.004874	-0.002250	0.999986	
3994														-0.062070	-0.134022	9.778566	-0.373905	-0.927445	-0.003962	0.927441	-0.373919	0.003669	-0.004884	-0.002302	0.999985	
3995														-0.029222	-0.175227	9.780357	-0.369270	-0.929314	-0.003995	0.929309	-0.369284	0.003679	-0.004894	-0.002354	0.999985	
3996														0.099117	-0.104525	9.766623	-0.365488	-0.930808	-0.004007	0.930803	-0.365502	0.003669	-0.004879	-0.002389	0.999985	
3997														0.088306	-0.011525	9.763940	-0.361803	-0.932246	-0.003922	0.932242	-0.361817	0.003709	-0.004876	-0.002314	0.999985	
3998														0.053054	0.040794	9.776448	-0.358049	-0.933694	-0.004102	0.933690	-0.358064	0.003741	-0.004962	-0.002491	0.999985	
3999														0.075656	-0.142838	9.796468	-0.354689	-0.934975	-0.004181	0.934970	-0.354705	0.003874	-0.005106	-0.002535	0.999984	
4000														0.147738	-0.157600	9.783802	-0.351954	-0.936007	-0.004412	0.936003	-0.351971	0.003796	-0.005106	-0.002794	0.999983	
4001														-0.041902	-0.139430	9.778918	-0.350754	-0.936455	-0.004785	0.936453	-0.350773	0.003710	-0.005153	-0.003180	0.999982	
4002														0.107534	-0.139124	9.782238	-0.350169	-0.936674	-0.004803	0.936673	-0.350187	0.003685	-0.005134	-0.003208	0.999982	
4003														0.211330	-0.142522	9.784709	-0.349304	-0.936998	-0.004690	0.936995	-0.349322	0.003726	-0.005129	-0.003093	0.999982	
4004														-0.010684	-0.294187	9.783601	-0.349273	-0.937009	-0.004718	0.937006	-0.349292	0.003794	-0.005203	-0.003096	0.999982	
4005														-0.009372	-0.368799	9.770922	-0.349488	-0.936929	-0.004681	0.936927	-0.349506	0.003772	-0.005170	-0.003067	0.999982	
4006														-0.057043	-0.060821	9.776585	-0.349570	-0.936899	-0.004589	0.936896	-0.349588	0.003841	-0.005203	-0.002956	0.999982	
4007														-0.065407	-0.102687	9.792170	-0.349635	-0.936875	-0.004568	0.936872	-0.349652	0.003846	-0.005200	-0.002935	0.999982	
4008														-0.088810	-0.068040	9.790754	-0.349569	-0.936900	-0.004551	0.936896	-0.349586	0.003870	-0.005217	-0.002911	0.999982	
4009														-0.054657	-0.043970	9.790923	-0.349540	-0.936911	-0.004521	0.936907	-0.349557	0.003888	-0.005223	-0.002877	0.999982	
4010														-0.085772	-0.053433	9.775804	-0.349474	-0.936935	-0.004616	0.936931	-0.349492	0.003870	-0.005240	-0.002972	0.999982	
4011														-0.080390	-0.024895	9.775173	-0.349352	-0.936980	-0.004634	0.936977	-0.349370	0.003862	-0.005238	-0.002993	0.999982	
4012														-0.077199	-0.010727	9.760221	-0.349250	-0.937018	-0.004639	0.937015	-0.349268	0.003847	-0.005225	-0.003004	0.999982	
4013														-0.076913	-0.010337	9.774866	-0.348944	-0.937132	-0.004653	0.937129	-0.348962	0.003748	-0.005136	-0.003052	0.999982	
4014														-0.125952	0.043401	9.772345	-0.347743	-0.937578	-0.004653	0.937576	-0.347761	0.003730	-0.005116	-0.003066	0.999982	
4015														-0.136139	-0.087842	9.804858	-0.346221	-0.938142	-0.004649	0.938139	-0.346239	0.003833	-0.005205	-0.003034	0.999982	
4016														-0.267853	0.010629	9.799302	-0.344510	-0.938771	-0.004627	0.938768	-0.344528	0.003926	-0.005280	-0.002991	0.999982	
4017														-0.202965	-0.046346	9.758312	-0.342423	-0.939535	-0.004602	0.939531	-0.342441	0.003982	-0.005318	-0.002960	0.999981	
4018														-0.030195	0.013355	9.790055	-0.340425	-0.940260	-0.004610	0.940256	-0.340444	0.004075	-0.005401	-0.002947	0.999981	
4019														-0.051569	0.062276	9.773654	-0.338464	-0.940969	-0.004484	0.940964	-0.338482	0.004126	-0.005401	-0.002823	0.999981	
4020														0.055619	-0.089404	9.780137	-0.336835	-0.941552	-0.004596	0.941548	-0.336854	0.004174	-0.005479	-0.002922	0.999981	
4021														-0.091244	-0.079927	9.761812	-0.335544	-0.942013	-0.004633	0.942008	-0.335563	0.004213	-0.005524	-0.002950	0.999980	
4022														-0.149874	-0.069340	9.789485	-0.334328	-0.942445	-0.004637	0.942440	-0.334347	0.004251	-0.005557	-0.002948	0.999980	
4023														0.278910	-0.081619	9.799831	-0.333602	-0.942702	-0.004696	0.942698	-0.333622	0.004180	-0.005507	-0.003033	0.999980	
4024														-0.522118	0.007721	9.778776	-0.333556	-0.942719	-0.004580	0.942715	-0.333574	0.004164	-0.005453	-0.002928	0.999981	
4025														0.058272	0.015302	9.792128	-0.333657	-0.942683	-0.004725	0.942678	-0.333677	0.004160	-0.005498	-0.003066	0.999980	
4026														0.170820	-0.019569	9.781024	-0.334020	-0.942554	-0.004865	0.942549	-0.334040	0.004294	-0.005672	-0.003151	0.999979	
4027														-0.152209	0.003233	9.758190	-0.334009	-0.942557	-0.005010	0.942553	-0.334030	0.004254	-0.005683	-0.003301	0.999978	
4028														-0.010758	-0.123752	9.794122	-0.333942	-0.942580	-0.004953	0.942576	-0.333963	0.004256	-0.005666	-0.003248	0.999979	
4029														-0.124943	-0.015209	9.773968	-0.333691	-0.942670	-0.004889	0.942666	-0.333711	0.004112	-0.005508	-0.003237	0.999980	
4030														-0.027010	-0.060430	9.777419	-0.333326	-0.942799	-0.004816	0.942796	-0.333346	0.003981	-0.005358	-0.003213	0.999980	
4031														-0.037649	-0.043303	9.776706	-0.333168	-0.942855	-0.004806	0.942853	-0.333187	0.003868	-0.005249	-0.003242	0.999981	
4032														-0.039618	-0.057416	9.791670	-0.333083	-0.942885	-0.004840	0.942883	-0.333102	0.003835	-0.005228	-0.003286	0.999981	
4033														-0.066498	-0.037956	9.805197	-0.333052	-0.942896	-0.004905	0.942894	-0.333071	0.003872	-0.005285	-0.003335	0.999980	
4034														-0.080261	-0.037000	9.760879	-0.333022	-0.942906	-0.004985	0.942904	-0.333042	0.003883	-0.005321	-0.003407	0.999980	
4035														-0.079667	-0.037612	9.790164	-0.333094	-0.942880	-0.005151	0.942880	-0.333113	0.003538	-0.005051	-0.003679	0.999980	
4036														-0.080167	-0.053467	9.775851	-0.333084	-0.942883	-0.005145	0.942884	-0.333104	0.003516	-0.005029	-0.003680	0.999981	
4037														-0.051520	-0.057599	9.791274	-0.333073	-0.942887	-0.005163	0.942887	-0.333093	0.003543	-0.005061	-0.003688	0.999980	
4038														-0.058427	-0.012034	9.775288	-0.333063	-0.942890	-0.005170	0.942891	-0.333082	0.003529	-0.005049	-0.003699	0.999980	
4039														-0.075805	-0.023137	9.804497	-0.333071	-0.942887	-0.005182	0.942888	-0.333091	0.003536	-0.005060	-0.003709	0.999980	
4040														-0.077464	-0.038292	9.775538	-0.333042	-0.942898	-0.005223	0.942898	-0.333062	0.003524	-0.005062	-0.003751	0.999980	
4041														-0.077283	-0.038146	9.775540	-0.333051	-0.942895	-0.005209	0.942895	-0.333070	0.003515	-0.005050	-0.003741	0.999980	
4042														-0.063037	-0.039944	9.790572	-0.333040	-0.942898	-0.005243	0.942899	-0.333060	0.003517	-0.005062	-0.003772	0.999980	
4043														-0.077120	-0.037625	9.775543	-0.333067	-0.942889	-0.005214	0.942889	-0.333087	0.003535	-0.005070	-0.003739	0.999980	
4044														-0.062529	-0.039593	9.775936	-0.333095	-0.942879	-0.005222	0.942880	-0.333115	0.003521	-0.005059	-0.003751	0.999980	
4045														-0.079294	-0.051507	9.775869	-0.333084	-0.942883	-0.005247	0.942884	-0.333104	0.003535	-0.005081	-0.003770	0.999980	
4046														-0.065091	-0.053244	9.790900	-0.333055	-0.942893	-0.005233	0.942894	-0.333075	0.003527	-0.005068	-0.003760	0.999980	
4047														-0.060069	-0.024044	9.790259	-0.333045	-0.942896	-0.005240	0.942897	-0.333065	0.003512	-0.005057	-0.003771	0.999980	
4048														-0.077259	-0.034897	9.819475	-0.333073	-0.942887	-0.005193	0.942888	-0.333092	0.003502	-0.005032	-0.003730	0.999980	
4049														-0.078342	-0.050040	9.775884	-0.333063	-0.942890	-0.005200	0.942891	-0.333082	0.003488	-0.005021	-0.003741	0.999980	
4050														-0.063099	-0.052979	9.746996	-0.333071	-0.942887	-0.005212	0.942888	-0.333091	0.003495	-0.005032	-0.003751	0.999980	
4051														-0.076348	-0.034311	9.804843	-0.333061	-0.942891	-0.005198	0.942892	-0.333081	0.003486	-0.005019	-0.003740	0.999980	
4052														-0.077921	-0.049114	9.775892	-0.333050	-0.942895	-0.005190	0.942896	-0.333070	0.003499	-0.005028	-0.003728	0.999980	
4053														-0.089833	-0.031773	9.775181	-0.333078	-0.942885	-0.005156	0.942886	-0.333097	0.003496	-0.005014	-0.003697	0.999981	
4054														-0.048614	-0.052938	9.776676	-0.333068	-0.942889	-0.005163	0.942890	-0.333087	0.003482	-0.005003	-0.003708	0.999981	
4055														-0.074953	-0.033595	9.775575	-0.333076	-0.942886	-0.005183	0.942887	-0.333096	0.003476	-0.005004	-0.003730	0.999981	
4056														-0.077535	-0.047456	9.790544	-0.333085	-0.942883	-0.005183	0.942884	-0.333104	0.003475	-0.005003	-0.003729	0.999981	
4057														-0.074620	-0.032930	9.775580	-0.333075	-0.942886	-0.005148	0.942887	-0.333094	0.003472	-0.004989	-0.003698	0.999981	
4058														-0.062288	-0.049240	9.776300	-0.333084	-0.942883	-0.005135	0.942884	-0.333103	0.003464	-0.004977	-0.003688	0.999981	
4059														-0.060100	-0.034093	9.790612	-0.333092	-0.942880	-0.005148	0.942881	-0.333111	0.003471	-0.004988	-0.003697	0.999981	
4060														-0.074572	-0.031454	9.790226	-0.333062	-0.942891	-0.005152	0.942892	-0.333082	0.003491	-0.005008	-0.003695	0.999981	
4061														-0.062471	-0.048059	9.790944	-0.333071	-0.942888	-0.005173	0.942889	-0.333090	0.003485	-0.005009	-0.003717	0.999981	
4062														-0.076789	-0.045487	9.790559	-0.333041	-0.942898	-0.005172	0.942899	-0.333061	0.003484	-0.005008	-0.003716	0.999981	
4063														-0.059653	-0.033522	9.775977	-0.333030	-0.942902	-0.005190	0.942903	-0.333050	0.003512	-0.005040	-0.003724	0.999980	
4064														-0.092998	-0.057814	9.761226	-0.333039	-0.942899	-0.005190	0.942900	-0.333058	0.003511	-0.005039	-0.003724	0.999980	
4065														-0.088281	-0.028175	9.775206	-0.333067	-0.942889	-0.005171	0.942890	-0.333086	0.003482	-0.005006	-0.003716	0.999981	
4066														-0.078554	-0.036731	9.782985	-0.333047	-0.942896	-0.005167	0.942897	-0.333067	0.003471	-0.004993	-0.003716	0.999981	
4067														-0.068828	-0.045287	9.790764	-0.333028	-0.942903	-0.005163	0.942904	-0.333047	0.003459	-0.004981	-0.003716	0.999981	
4068														-0.073038	-0.029590	9.775602	-0.333036	-0.942900	-0.005164	0.942901	-0.333056	0.003459	-0.004982	-0.003717	0.999981	
4069														-0.075982	-0.042998	9.805217	-0.333045	-0.942897	-0.005177	0.942898	-0.333064	0.003467	-0.004993	-0.003726	0.999981	
4070														-0.062780	-0.060678	9.762021	-0.333035	-0.942900	-0.005163	0.942901	-0.333054	0.003458	-0.004980	-0.003716	0.999981	
4071														-0.075371	-0.042771	9.790582	-0.332986	-0.942918	-0.005175	0.942919	-0.333005	0.003465	-0.004991	-0.003726	0.999981	
4072														-0.072796	-0.027856	9.790250	-0.333014	-0.942908	-0.005128	0.942909	-0.333033	0.003455	-0.004965	-0.003684	0.999981	
4073														-0.074203	-0.042642	9.761311	-0.333004	-0.942911	-0.005135	0.942912	-0.333023	0.003441	-0.004955	-0.003696	0.999981	
4074														-0.074828	-0.041641	9.790591	-0.332993	-0.942915	-0.005153	0.942916	-0.333012	0.003469	-0.004987	-0.003704	0.999981	
4075														-0.074367	-0.041831	9.775954	-0.332964	-0.942925	-0.005154	0.942926	-0.332984	0.003434	-0.004955	-0.003717	0.999981	
4076														-0.059725	-0.043935	9.776341	-0.332972	-0.942922	-0.005160	0.942923	-0.332992	0.003455	-0.004976	-0.003715	0.999981	
4077														-0.062057	-0.058070	9.776681	-0.332981	-0.942919	-0.005159	0.942920	-0.333000	0.003454	-0.004975	-0.003715	0.999981	
4078														-0.072073	-0.026097	9.790260	-0.332970	-0.942923	-0.005164	0.942924	-0.332989	0.003475	-0.004996	-0.003713	0.999981	
4079														-0.074251	-0.040297	9.790601	-0.332998	-0.942913	-0.005167	0.942914	-0.333017	0.003440	-0.004965	-0.003726	0.999981	
4080														-0.074175	-0.040142	9.790602	-0.332949	-0.942931	-0.005198	0.942932	-0.332968	0.003476	-0.005008	-0.003744	0.999980	
4081														-0.071505	-0.025815	9.775624	-0.332920	-0.942941	-0.005184	0.942942	-0.332939	0.003467	-0.004995	-0.003733	0.999981	
4082														-0.090856	-0.051559	9.790562	-0.332947	-0.942931	-0.005176	0.942932	-0.332966	0.003480	-0.005005	-0.003722	0.999981	
4083														-0.061589	-0.056340	9.776694	-0.332917	-0.942942	-0.005188	0.942943	-0.332937	0.003487	-0.005016	-0.003731	0.999980	
4084														-0.074306	-0.038528	9.805248	-0.332925	-0.942939	-0.005201	0.942940	-0.332945	0.003495	-0.005027	-0.003741	0.999980	
4085														-0.075931	-0.053518	9.776313	-0.332915	-0.942942	-0.005201	0.942943	-0.332935	0.003494	-0.005026	-0.003741	0.999980	
4086														-0.073384	-0.038812	9.775973	-0.332905	-0.942946	-0.005208	0.942947	-0.332925	0.003481	-0.005016	-0.003752	0.999980	
4087														-0.075818	-0.052566	9.790958	-0.332895	-0.942950	-0.005195	0.942951	-0.332914	0.003472	-0.005004	-0.003742	0.999980	
4088														-0.075959	-0.052018	9.805600	-0.332865	-0.942960	-0.005236	0.942961	-0.332885	0.003461	-0.005006	-0.003785	0.999980	
4089														-0.058741	-0.040048	9.791003	-0.332874	-0.942957	-0.005207	0.942958	-0.332893	0.003479	-0.005014	-0.003752	0.999980	
4090														-0.072728	-0.037690	9.775983	-0.332901	-0.942947	-0.005215	0.942948	-0.332921	0.003466	-0.005004	-0.003764	0.999980	
4091														-0.072864	-0.037037	9.790624	-0.332872	-0.942958	-0.005214	0.942959	-0.332892	0.003465	-0.005003	-0.003763	0.999980	
4092														-0.058043	-0.039359	9.776371	-0.332899	-0.942948	-0.005199	0.942949	-0.332918	0.003492	-0.005023	-0.003740	0.999980	
4093														-0.071591	-0.037793	9.732070	-0.332888	-0.942952	-0.005204	0.942953	-0.332908	0.003512	-0.005044	-0.003738	0.999980	
4094														-0.090427	-0.047375	9.819868	-0.332896	-0.942949	-0.005251	0.942950	-0.332916	0.003522	-0.005069	-0.003779	0.999980	
4095														-0.076060	-0.049601	9.820251	-0.332885	-0.942953	-0.005257	0.942954	-0.332905	0.003542	-0.005090	-0.003778	0.999980	
4096														-0.072607	-0.036151	9.775989	-0.332894	-0.942950	-0.005272	0.942951	-0.332914	0.003516	-0.005070	-0.003801	0.999980	
4097														-0.060097	-0.053089	9.762082	-0.332901	-0.942947	-0.005270	0.942948	-0.332922	0.003550	-0.005102	-0.003787	0.999980	
4098														-0.060389	-0.052368	9.776723	-0.332929	-0.942937	-0.005278	0.942938	-0.332949	0.003537	-0.005092	-0.003799	0.999980	
4099														-0.101117	-0.031138	9.760585	-0.332917	-0.942941	-0.005309	0.942942	-0.332938	0.003572	-0.005136	-0.003817	0.999980	
4100														-0.058476	-0.037123	9.791017	-0.332907	-0.942945	-0.005309	0.942946	-0.332927	0.003572	-0.005136	-0.003817	0.999980	
4101														-0.044202	-0.038745	9.806042	-0.332897	-0.942948	-0.005309	0.942949	-0.332917	0.003572	-0.005135	-0.003817	0.999980	
4102														-0.077392	-0.063021	9.791334	-0.332924	-0.942939	-0.005301	0.942940	-0.332944	0.003585	-0.005145	-0.003805	0.999980	
4103														-0.067306	-0.023485	9.643894	-0.332912	-0.942943	-0.005346	0.942944	-0.332933	0.003629	-0.005201	-0.003833	0.999979	
4104														-0.051100	-0.065253	9.879934	-0.332937	-0.942933	-0.005446	0.942934	-0.332959	0.003669	-0.005273	-0.003914	0.999978	
4105														-0.141219	-0.046634	10.038658	-0.332891	-0.942950	-0.005374	0.942951	-0.332912	0.003609	-0.005192	-0.003866	0.999979	
4106														-0.095698	-0.036018	9.526365	-0.332900	-0.942947	-0.005361	0.942948	-0.332921	0.003602	-0.005181	-0.003856	0.999979	
4107														0.027327	-0.065378	9.749761	-0.332927	-0.942937	-0.005437	0.942938	-0.332948	0.003593	-0.005198	-0.003930	0.999979	
4108														-0.033896	-0.052125	9.894615	-0.332915	-0.942941	-0.005468	0.942942	-0.332937	0.003629	-0.005242	-0.003948	0.999978	
4109														-0.169922	-0.004505	9.714403	-0.332943	-0.942931	-0.005456	0.942932	-0.332964	0.003621	-0.005231	-0.003939	0.999979	
4110														-0.080870	-0.074784	9.850249	-0.332932	-0.942935	-0.005489	0.942936	-0.332954	0.003623	-0.005244	-0.003970	0.999978	
4111														0.014534	-0.047221	9.778308	-0.332940	-0.942932	-0.005482	0.942933	-0.332962	0.003636	-0.005254	-0.003958	0.999978	
4112														-0.100075	-0.029647	9.731318	-0.332911	-0.942942	-0.005523	0.942944	-0.332933	0.003625	-0.005257	-0.004001	0.999978	
4113														-0.150735	-0.048151	9.847981	-0.332881	-0.942953	-0.005520	0.942954	-0.332903	0.003659	-0.005288	-0.003988	0.999978	
4114														-0.045760	-0.051209	9.791766	-0.332947	-0.942930	-0.005503	0.942931	-0.332968	0.003631	-0.005256	-0.003980	0.999978	
4115														-0.044977	-0.051717	9.762490	-0.332917	-0.942940	-0.005521	0.942941	-0.332938	0.003659	-0.005288	-0.003988	0.999978	
4116														-0.089018	-0.043649	9.790617	-0.332944	-0.942930	-0.005521	0.942932	-0.332966	0.003659	-0.005289	-0.003988	0.999978	
4117														-0.073113	-0.030030	9.834567	-0.332933	-0.942934	-0.005534	0.942936	-0.332955	0.003667	-0.005300	-0.003998	0.999978	
4118														-0.058914	-0.048962	9.747472	-0.332942	-0.942931	-0.005521	0.942932	-0.332964	0.003659	-0.005288	-0.003988	0.999978	
4119														-0.090669	-0.057640	9.776339	-0.332931	-0.942935	-0.005534	0.942936	-0.332953	0.003666	-0.005300	-0.003998	0.999978	
4120														-0.101667	-0.024499	9.833805	-0.332940	-0.942932	-0.005534	0.942933	-0.332962	0.003667	-0.005300	-0.003998	0.999978	
4121														-0.070839	-0.030853	9.761380	-0.332930	-0.942935	-0.005515	0.942937	-0.332952	0.003638	-0.005267	-0.003989	0.999978	
4122														-0.072910	-0.044800	9.761740	-0.332938	-0.942933	-0.005487	0.942934	-0.332960	0.003657	-0.005275	-0.003956	0.999978	
4123														-0.085278	-0.027349	9.775641	-0.332947	-0.942929	-0.005529	0.942931	-0.332969	0.003646	-0.005279	-0.003999	0.999978	
4124														-0.061535	-0.059877	9.806400	-0.332936	-0.942933	-0.005508	0.942935	-0.332958	0.003651	-0.005277	-0.003978	0.999978	
4125														-0.058414	-0.045830	9.776768	-0.332945	-0.942930	-0.005508	0.942932	-0.332967	0.003652	-0.005277	-0.003978	0.999978	
4126														-0.058599	-0.045108	9.791410	-0.332972	-0.942921	-0.005508	0.942922	-0.332994	0.003652	-0.005278	-0.003978	0.999978	
4127														-0.058357	-0.044807	9.791412	-0.332981	-0.942917	-0.005503	0.942919	-0.333003	0.003631	-0.005257	-0.003980	0.999978	
4128														-0.057800	-0.045026	9.776776	-0.332971	-0.942921	-0.005524	0.942923	-0.332992	0.003626	-0.005258	-0.004001	0.999978	
4129														-0.058346	-0.043828	9.806056	-0.332941	-0.942932	-0.005495	0.942933	-0.332963	0.003644	-0.005266	-0.003968	0.999978	
4130														-0.058198	-0.043412	9.806059	-0.332969	-0.942922	-0.005503	0.942923	-0.332990	0.003631	-0.005257	-0.003980	0.999978	
4131														-0.088304	-0.054338	9.761740	-0.332958	-0.942925	-0.005524	0.942927	-0.332980	0.003626	-0.005258	-0.004001	0.999978	
4132														-0.074246	-0.055626	9.791403	-0.332948	-0.942929	-0.005518	0.942931	-0.332970	0.003605	-0.005237	-0.004003	0.999978	
4133														-0.071407	-0.041228	9.776406	-0.332975	-0.942919	-0.005511	0.942921	-0.332997	0.003619	-0.005247	-0.003991	0.999978	
4134														-0.100451	-0.035825	9.790286	-0.332966	-0.942923	-0.005505	0.942925	-0.332987	0.003598	-0.005226	-0.003993	0.999978	
4135														-0.083270	-0.023445	9.790310	-0.332975	-0.942920	-0.005508	0.942921	-0.332996	0.003564	-0.005194	-0.004006	0.999978	
4136														-0.056479	-0.042173	9.791435	-0.332983	-0.942917	-0.005492	0.942919	-0.333004	0.003591	-0.005215	-0.003983	0.999978	
4137														-0.054180	-0.027444	9.791073	-0.332972	-0.942921	-0.005526	0.942922	-0.332994	0.003593	-0.005228	-0.004015	0.999978	
4138														-0.072526	-0.054789	9.762142	-0.333000	-0.942911	-0.005535	0.942913	-0.333021	0.003580	-0.005219	-0.004026	0.999978	
4139														-0.082418	-0.022841	9.775677	-0.332971	-0.942921	-0.005521	0.942923	-0.332992	0.003572	-0.005207	-0.004016	0.999978	
4140														-0.072455	-0.053760	9.776788	-0.332960	-0.942925	-0.005534	0.942927	-0.332981	0.003580	-0.005218	-0.004026	0.999978	
4141														-0.055658	-0.041503	9.776804	-0.332968	-0.942922	-0.005568	0.942924	-0.332990	0.003582	-0.005232	-0.004058	0.999978	
4142														-0.070315	-0.038676	9.791064	-0.332977	-0.942919	-0.005576	0.942921	-0.332998	0.003569	-0.005222	-0.004069	0.999978	
4143														-0.070017	-0.038327	9.791068	-0.333004	-0.942909	-0.005550	0.942911	-0.333026	0.003555	-0.005200	-0.004050	0.999978	
4144														-0.071758	-0.053093	9.762157	-0.333011	-0.942907	-0.005546	0.942908	-0.333033	0.003623	-0.005263	-0.004023	0.999978	
4145														-0.070077	-0.037310	9.791071	-0.332964	-0.942923	-0.005527	0.942925	-0.332985	0.003594	-0.005230	-0.004015	0.999978	
4146														-0.069943	-0.037106	9.791073	-0.332971	-0.942921	-0.005567	0.942922	-0.332993	0.003618	-0.005265	-0.004044	0.999978	
4147														-0.081432	-0.020974	9.761049	-0.332980	-0.942918	-0.005554	0.942919	-0.333002	0.003610	-0.005254	-0.004034	0.999978	
4148														-0.083878	-0.034760	9.776058	-0.332988	-0.942914	-0.005575	0.942916	-0.333010	0.003605	-0.005256	-0.004056	0.999978	
4149														-0.068930	-0.037445	9.761800	-0.332978	-0.942918	-0.005603	0.942920	-0.333000	0.003587	-0.005248	-0.004089	0.999978	
4150														-0.069536	-0.036387	9.791078	-0.332986	-0.942915	-0.005601	0.942917	-0.333008	0.003621	-0.005280	-0.004076	0.999978	
4151														-0.069397	-0.036476	9.776440	-0.332974	-0.942919	-0.005620	0.942921	-0.332997	0.003650	-0.005313	-0.004084	0.999978	
4152														-0.071317	-0.051205	9.762171	-0.332983	-0.942916	-0.005636	0.942918	-0.333006	0.003624	-0.005294	-0.004107	0.999978	
4153														-0.069242	-0.036061	9.776442	-0.332991	-0.942913	-0.005634	0.942915	-0.333013	0.003658	-0.005325	-0.004094	0.999977	
4154														-0.069528	-0.035319	9.791082	-0.333018	-0.942903	-0.005642	0.942905	-0.333041	0.003646	-0.005316	-0.004106	0.999977	
4155														-0.069456	-0.035164	9.791084	-0.333007	-0.942907	-0.005668	0.942909	-0.333030	0.003661	-0.005340	-0.004125	0.999977	
4156														-0.066429	-0.021292	9.761437	-0.332978	-0.942918	-0.005655	0.942919	-0.333001	0.003654	-0.005328	-0.004115	0.999977	
4157														-0.071113	-0.049487	9.776820	-0.332968	-0.942921	-0.005662	0.942923	-0.332991	0.003641	-0.005318	-0.004127	0.999977	
4158														-0.071136	-0.048817	9.791462	-0.332977	-0.942918	-0.005657	0.942920	-0.333000	0.003620	-0.005297	-0.004129	0.999977	
4159														-0.085462	-0.046211	9.791086	-0.333004	-0.942908	-0.005663	0.942910	-0.333026	0.003642	-0.005320	-0.004127	0.999977	
4160														-0.068043	-0.034690	9.761816	-0.333031	-0.942899	-0.005684	0.942901	-0.333054	0.003637	-0.005322	-0.004149	0.999977	
4161														-0.070492	-0.048682	9.776829	-0.333002	-0.942909	-0.005712	0.942911	-0.333025	0.003618	-0.005314	-0.004181	0.999977	
4162														-0.082516	-0.031722	9.776080	-0.332991	-0.942913	-0.005705	0.942915	-0.333014	0.003632	-0.005324	-0.004170	0.999977	
4163														-0.070629	-0.047627	9.791472	-0.332999	-0.942910	-0.005697	0.942912	-0.333022	0.003646	-0.005335	-0.004158	0.999977	
4164														-0.084952	-0.045024	9.791096	-0.332989	-0.942913	-0.005705	0.942916	-0.333012	0.003633	-0.005325	-0.004170	0.999977	
4165														-0.069673	-0.047923	9.762199	-0.332998	-0.942910	-0.005705	0.942913	-0.333020	0.003633	-0.005326	-0.004170	0.999977	
4166														-0.084740	-0.044561	9.791100	-0.333005	-0.942908	-0.005732	0.942910	-0.333028	0.003649	-0.005350	-0.004189	0.999977	
4167														-0.069833	-0.047079	9.776841	-0.333014	-0.942904	-0.005726	0.942907	-0.333037	0.003629	-0.005329	-0.004191	0.999977	
4168														-0.084488	-0.044260	9.791104	-0.333003	-0.942908	-0.005774	0.942910	-0.333026	0.003639	-0.005354	-0.004232	0.999977	
4169														-0.055265	-0.049000	9.777221	-0.332974	-0.942919	-0.005745	0.942921	-0.332997	0.003657	-0.005362	-0.004199	0.999977	
4170														-0.067279	-0.031833	9.776471	-0.332964	-0.942922	-0.005753	0.942924	-0.332987	0.003645	-0.005352	-0.004211	0.999977	
4171														-0.069181	-0.046466	9.762210	-0.332972	-0.942919	-0.005759	0.942922	-0.332995	0.003666	-0.005374	-0.004209	0.999977	
4172														-0.084288	-0.042943	9.791111	-0.332980	-0.942916	-0.005751	0.942919	-0.333003	0.003680	-0.005385	-0.004198	0.999977	
4173														-0.076877	-0.044091	9.783982	-0.332988	-0.942914	-0.005764	0.942916	-0.333011	0.003687	-0.005396	-0.004207	0.999977	
4174														-0.069466	-0.045238	9.776852	-0.332996	-0.942911	-0.005777	0.942913	-0.333019	0.003694	-0.005407	-0.004217	0.999976	
4175														-0.069733	-0.044383	9.791493	-0.332985	-0.942915	-0.005771	0.942917	-0.333008	0.003710	-0.005420	-0.004206	0.999976	
4176														-0.057779	-0.060225	9.806891	-0.333012	-0.942905	-0.005750	0.942907	-0.333036	0.003716	-0.005419	-0.004184	0.999977	
4177														-0.066504	-0.029749	9.761843	-0.333002	-0.942909	-0.005716	0.942911	-0.333025	0.003715	-0.005406	-0.004153	0.999977	
4178														-0.083638	-0.040653	9.791127	-0.333030	-0.942899	-0.005725	0.942901	-0.333053	0.003703	-0.005398	-0.004165	0.999977	
4179														-0.054579	-0.045016	9.791882	-0.333019	-0.942903	-0.005738	0.942905	-0.333042	0.003711	-0.005410	-0.004174	0.999977	
4180														-0.085510	-0.055080	9.776872	-0.333027	-0.942900	-0.005744	0.942902	-0.333050	0.003732	-0.005432	-0.004173	0.999977	
4181														-0.069034	-0.042146	9.791508	-0.333035	-0.942897	-0.005744	0.942899	-0.333058	0.003733	-0.005433	-0.004173	0.999977	
4182														-0.070872	-0.056736	9.777254	-0.333024	-0.942901	-0.005744	0.942903	-0.333048	0.003734	-0.005434	-0.004173	0.999977	
4183														-0.066617	-0.026998	9.791129	-0.333013	-0.942905	-0.005742	0.942906	-0.333037	0.003768	-0.005465	-0.004159	0.999976	
4184														-0.067040	-0.030646	9.783906	-0.333031	-0.942898	-0.005759	0.942900	-0.333054	0.003769	-0.005471	-0.004175	0.999976	
4185														-0.067462	-0.034293	9.776683	-0.333049	-0.942892	-0.005776	0.942894	-0.333072	0.003770	-0.005478	-0.004190	0.999976	
4186														-0.085580	-0.052905	9.791523	-0.333037	-0.942896	-0.005769	0.942898	-0.333061	0.003786	-0.005491	-0.004179	0.999976	
4187														-0.068839	-0.040345	9.791517	-0.333026	-0.942900	-0.005775	0.942901	-0.333050	0.003807	-0.005513	-0.004177	0.999976	
4188														-0.068236	-0.040954	9.762241	-0.333035	-0.942897	-0.005789	0.942898	-0.333059	0.003815	-0.005525	-0.004188	0.999976	
4189														-0.068578	-0.040351	9.776880	-0.333005	-0.942907	-0.005815	0.942909	-0.333029	0.003830	-0.005548	-0.004207	0.999976	
4190														-0.069182	-0.039364	9.806158	-0.332995	-0.942911	-0.005836	0.942912	-0.333019	0.003825	-0.005550	-0.004229	0.999976	
4191														-0.071484	-0.053558	9.806544	-0.332964	-0.942921	-0.005834	0.942923	-0.332989	0.003860	-0.005582	-0.004215	0.999976	
4192														-0.068374	-0.039615	9.776884	-0.332936	-0.942931	-0.005822	0.942933	-0.332961	0.003818	-0.005539	-0.004219	0.999976	
4193														-0.068683	-0.038277	9.806165	-0.332907	-0.942942	-0.005794	0.942943	-0.332931	0.003837	-0.005547	-0.004186	0.999976	
4194														-0.082690	-0.036033	9.791153	-0.332934	-0.942932	-0.005802	0.942934	-0.332959	0.003825	-0.005539	-0.004198	0.999976	
4195														-0.070056	-0.052901	9.777282	-0.332943	-0.942929	-0.005795	0.942931	-0.332967	0.003839	-0.005549	-0.004186	0.999976	
4196														-0.084071	-0.050765	9.762269	-0.332932	-0.942933	-0.005803	0.942935	-0.332956	0.003826	-0.005540	-0.004197	0.999976	
4197														-0.084658	-0.049563	9.791548	-0.332921	-0.942937	-0.005800	0.942938	-0.332945	0.003861	-0.005572	-0.004184	0.999976	
4198														-0.084670	-0.049189	9.791550	-0.332910	-0.942941	-0.005800	0.942942	-0.332934	0.003862	-0.005573	-0.004184	0.999976	
4199														-0.067533	-0.037175	9.776900	-0.332937	-0.942931	-0.005814	0.942933	-0.332961	0.003870	-0.005585	-0.004194	0.999976	
4200														-0.086578	-0.063570	9.777305	-0.332926	-0.942935	-0.005820	0.942936	-0.332950	0.003892	-0.005607	-0.004192	0.999975	
4201														-0.081333	-0.052989	9.780767	-0.332896	-0.942946	-0.005832	0.942947	-0.332920	0.003899	-0.005618	-0.004201	0.999975	
4202														-0.076088	-0.042408	9.784228	-0.332866	-0.942956	-0.005844	0.942957	-0.332891	0.003906	-0.005628	-0.004211	0.999975	
4203														-0.081929	-0.033899	9.776527	-0.332874	-0.942953	-0.005846	0.942954	-0.332899	0.003909	-0.005632	-0.004212	0.999975	
4204														-0.081794	-0.033591	9.776530	-0.332902	-0.942943	-0.005847	0.942945	-0.332926	0.003910	-0.005634	-0.004212	0.999975	
4205														-0.071733	-0.064476	9.777694	-0.332891	-0.942947	-0.005847	0.942948	-0.332916	0.003910	-0.005634	-0.004211	0.999975	
4206														-0.065561	-0.019916	9.805793	-0.332880	-0.942951	-0.005866	0.942952	-0.332905	0.003939	-0.005667	-0.004220	0.999975	
4207														-0.069238	-0.049863	9.762665	-0.332870	-0.942954	-0.005859	0.942956	-0.332895	0.003953	-0.005678	-0.004209	0.999975	
4208														-0.067494	-0.034031	9.791550	-0.332898	-0.942945	-0.005839	0.942946	-0.332922	0.003960	-0.005678	-0.004187	0.999975	
4209														-0.096246	-0.029260	9.790800	-0.332907	-0.942942	-0.005868	0.942943	-0.332932	0.003941	-0.005670	-0.004221	0.999975	
4210														-0.083599	-0.046126	9.776935	-0.332914	-0.942939	-0.005840	0.942940	-0.332939	0.003961	-0.005680	-0.004188	0.999975	
4211														-0.083924	-0.045303	9.791575	-0.332903	-0.942943	-0.005866	0.942944	-0.332928	0.003977	-0.005704	-0.004208	0.999975	
4212														-0.052955	-0.034747	9.806572	-0.332912	-0.942940	-0.005874	0.942941	-0.332937	0.003965	-0.005694	-0.004219	0.999975	
4213														-0.083352	-0.045346	9.776941	-0.332921	-0.942937	-0.005875	0.942938	-0.332946	0.003966	-0.005695	-0.004219	0.999975	
4214														-0.069063	-0.046949	9.791957	-0.332909	-0.942940	-0.005895	0.942942	-0.332935	0.003961	-0.005698	-0.004240	0.999975	
4215														-0.083039	-0.044996	9.776945	-0.332900	-0.942944	-0.005903	0.942945	-0.332925	0.003949	-0.005689	-0.004252	0.999975	
4216														-0.083155	-0.044189	9.791587	-0.332927	-0.942934	-0.005883	0.942935	-0.332952	0.003955	-0.005688	-0.004230	0.999975	
4217														-0.082651	-0.044283	9.776952	-0.332916	-0.942938	-0.005890	0.942939	-0.332942	0.003943	-0.005679	-0.004242	0.999975	
4218														-0.067836	-0.046348	9.777330	-0.332888	-0.942948	-0.005892	0.942949	-0.332913	0.003909	-0.005648	-0.004255	0.999975	
4219														-0.065214	-0.031483	9.776936	-0.332897	-0.942945	-0.005859	0.942946	-0.332922	0.003908	-0.005635	-0.004224	0.999975	
4220														-0.052916	-0.047835	9.777712	-0.332886	-0.942949	-0.005885	0.942950	-0.332911	0.003924	-0.005659	-0.004243	0.999975	
4221														-0.098973	-0.054877	9.791627	-0.332893	-0.942946	-0.005891	0.942947	-0.332919	0.003946	-0.005682	-0.004242	0.999975	
4222														-0.067384	-0.045103	9.777339	-0.332902	-0.942943	-0.005899	0.942944	-0.332927	0.003934	-0.005673	-0.004253	0.999975	
4223														-0.069652	-0.058768	9.792382	-0.332911	-0.942940	-0.005873	0.942941	-0.332936	0.003919	-0.005651	-0.004233	0.999975	
4224														-0.095990	-0.039939	9.776596	-0.332899	-0.942944	-0.005905	0.942945	-0.332925	0.003956	-0.005697	-0.004251	0.999975	
4225														-0.067494	-0.043810	9.791983	-0.332907	-0.942941	-0.005919	0.942942	-0.332932	0.003965	-0.005710	-0.004261	0.999975	
4226														-0.084500	-0.055258	9.806650	-0.332935	-0.942931	-0.005913	0.942932	-0.332961	0.003979	-0.005721	-0.004250	0.999975	
4227														-0.070001	-0.057293	9.807026	-0.332886	-0.942948	-0.005946	0.942950	-0.332911	0.003982	-0.005734	-0.004281	0.999974	
4228														-0.054731	-0.060302	9.778127	-0.332913	-0.942939	-0.005941	0.942940	-0.332939	0.003962	-0.005714	-0.004283	0.999975	
4229														-0.066498	-0.043735	9.762714	-0.332883	-0.942949	-0.005946	0.942951	-0.332909	0.003984	-0.005736	-0.004281	0.999974	
4230														-0.067133	-0.042553	9.791991	-0.332872	-0.942953	-0.005959	0.942954	-0.332898	0.003992	-0.005748	-0.004291	0.999974	
4231														-0.066541	-0.043197	9.762716	-0.332899	-0.942944	-0.005966	0.942945	-0.332925	0.004014	-0.005771	-0.004289	0.999974	
4232														-0.080982	-0.040638	9.762343	-0.332908	-0.942941	-0.005966	0.942942	-0.332933	0.004015	-0.005772	-0.004289	0.999974	
4233														-0.068986	-0.056631	9.777762	-0.332878	-0.942951	-0.005979	0.942952	-0.332904	0.004023	-0.005784	-0.004299	0.999974	
4234														-0.051933	-0.044754	9.763094	-0.332867	-0.942955	-0.006013	0.942956	-0.332893	0.004026	-0.005798	-0.004330	0.999974	
4235														-0.069243	-0.055853	9.792402	-0.332855	-0.942959	-0.006005	0.942960	-0.332881	0.004040	-0.005808	-0.004318	0.999974	
4236														-0.066640	-0.041420	9.777361	-0.332843	-0.942963	-0.005998	0.942964	-0.332870	0.004054	-0.005819	-0.004306	0.999974	
4237														-0.066606	-0.041102	9.777362	-0.332851	-0.942960	-0.006011	0.942961	-0.332878	0.004062	-0.005832	-0.004316	0.999974	
4238														-0.069031	-0.054908	9.792409	-0.332841	-0.942964	-0.006019	0.942965	-0.332867	0.004050	-0.005823	-0.004327	0.999974	
4239														-0.066174	-0.040548	9.777368	-0.332851	-0.942961	-0.005993	0.942962	-0.332877	0.004036	-0.005800	-0.004308	0.999974	
4240														-0.083166	-0.052003	9.792041	-0.332839	-0.942964	-0.006026	0.942965	-0.332866	0.004073	-0.005846	-0.004327	0.999974	
4241														-0.080758	-0.037929	9.776994	-0.332867	-0.942954	-0.006061	0.942956	-0.332894	0.004076	-0.005861	-0.004359	0.999973	
4242														-0.080938	-0.037265	9.791634	-0.332876	-0.942951	-0.006048	0.942953	-0.332902	0.004069	-0.005851	-0.004349	0.999973	
4243														-0.068311	-0.054064	9.777781	-0.332846	-0.942962	-0.006054	0.942963	-0.332872	0.004091	-0.005873	-0.004347	0.999973	
4244														-0.083368	-0.050695	9.806685	-0.333002	-0.942908	-0.005771	0.942908	-0.333028	0.004198	-0.005880	-0.004044	0.999975	
4245														-0.080436	-0.036994	9.777000	-0.332995	-0.942911	-0.005784	0.942910	-0.333021	0.004205	-0.005892	-0.004054	0.999974	
4246														-0.080659	-0.036271	9.791640	-0.332987	-0.942914	-0.005784	0.942913	-0.333012	0.004206	-0.005892	-0.004053	0.999974	
4247														-0.066094	-0.038136	9.792016	-0.332979	-0.942917	-0.005776	0.942916	-0.333004	0.004219	-0.005902	-0.004042	0.999974	
4248														-0.080169	-0.036003	9.777006	-0.332988	-0.942913	-0.005776	0.942913	-0.333013	0.004220	-0.005903	-0.004041	0.999974	
4249														-0.079776	-0.036102	9.762371	-0.333016	-0.942903	-0.005769	0.942903	-0.333042	0.004234	-0.005913	-0.004030	0.999974	
4250														-0.068018	-0.051565	9.792434	-0.333008	-0.942906	-0.005776	0.942905	-0.333034	0.004221	-0.005903	-0.004041	0.999974	
4251														-0.067514	-0.051671	9.777800	-0.332997	-0.942910	-0.005755	0.942909	-0.333023	0.004227	-0.005902	-0.004019	0.999975	
4252														-0.081896	-0.049077	9.777429	-0.333005	-0.942908	-0.005768	0.942907	-0.333030	0.004235	-0.005914	-0.004029	0.999974	
4253														-0.080043	-0.033921	9.791654	-0.332991	-0.942912	-0.005787	0.942911	-0.333017	0.004263	-0.005947	-0.004037	0.999974	
4254														-0.081688	-0.049056	9.762793	-0.332981	-0.942916	-0.005787	0.942915	-0.333007	0.004264	-0.005948	-0.004037	0.999974	
4255														-0.067488	-0.050602	9.777806	-0.332932	-0.942933	-0.005813	0.942932	-0.332958	0.004279	-0.005970	-0.004056	0.999974	
4256														-0.081625	-0.048632	9.762795	-0.332940	-0.942930	-0.005813	0.942929	-0.332966	0.004279	-0.005971	-0.004056	0.999974	
4257														-0.050872	-0.037423	9.792406	-0.332967	-0.942920	-0.005821	0.942920	-0.332993	0.004267	-0.005962	-0.004068	0.999974	
4258														-0.079276	-0.033247	9.777023	-0.332920	-0.942937	-0.005828	0.942936	-0.332946	0.004254	-0.005951	-0.004079	0.999974	
4259														-0.081713	-0.046780	9.792080	-0.332947	-0.942928	-0.005792	0.942927	-0.332973	0.004286	-0.005970	-0.004034	0.999974	
4260														-0.067136	-0.048425	9.792457	-0.332956	-0.942925	-0.005779	0.942924	-0.332982	0.004279	-0.005959	-0.004024	0.999974	
4261														-0.068562	-0.063477	9.763602	-0.332965	-0.942921	-0.005779	0.942920	-0.332991	0.004280	-0.005960	-0.004024	0.999974	
4262														-0.064678	-0.033278	9.792043	-0.332974	-0.942918	-0.005785	0.942917	-0.333000	0.004301	-0.005981	-0.004022	0.999974	
4263														-0.083019	-0.060568	9.763233	-0.332982	-0.942915	-0.005777	0.942914	-0.333008	0.004314	-0.005992	-0.004010	0.999974	
4264														-0.079393	-0.029953	9.806311	-0.332971	-0.942919	-0.005798	0.942918	-0.332997	0.004309	-0.005994	-0.004032	0.999974	
4265														-0.065622	-0.048177	9.748556	-0.332942	-0.942930	-0.005758	0.942928	-0.332968	0.004287	-0.005959	-0.004002	0.999974	
4266														-0.080351	-0.044723	9.777463	-0.332913	-0.942940	-0.005785	0.942939	-0.332939	0.004268	-0.005951	-0.004034	0.999974	
4267														-0.065793	-0.046679	9.777837	-0.332940	-0.942930	-0.005771	0.942929	-0.332966	0.004295	-0.005971	-0.004011	0.999974	
4268														-0.066109	-0.045728	9.792476	-0.332967	-0.942921	-0.005763	0.942919	-0.332993	0.004309	-0.005982	-0.004000	0.999974	
4269														-0.080603	-0.043139	9.792106	-0.332975	-0.942918	-0.005769	0.942916	-0.333001	0.004330	-0.006004	-0.003998	0.999974	
4270														-0.082491	-0.057768	9.777892	-0.332983	-0.942915	-0.005769	0.942914	-0.333009	0.004331	-0.006005	-0.003998	0.999974	
4271														-0.094548	-0.040725	9.777101	-0.332991	-0.942912	-0.005756	0.942911	-0.333017	0.004324	-0.005994	-0.003987	0.999974	
4272														-0.094654	-0.039893	9.791742	-0.332961	-0.942923	-0.005756	0.942922	-0.332987	0.004325	-0.005994	-0.003987	0.999974	
4273														-0.065308	-0.044428	9.777850	-0.332989	-0.942913	-0.005749	0.942912	-0.333015	0.004339	-0.006005	-0.003976	0.999974	
4274														-0.079644	-0.041803	9.777481	-0.333035	-0.942897	-0.005736	0.942896	-0.333060	0.004332	-0.005995	-0.003966	0.999974	
4275														-0.065033	-0.043706	9.777855	-0.333024	-0.942901	-0.005749	0.942899	-0.333050	0.004340	-0.006007	-0.003975	0.999974	
4276														-0.065195	-0.042920	9.792495	-0.333014	-0.942904	-0.005736	0.942903	-0.333040	0.004332	-0.005995	-0.003965	0.999974	
4277														-0.064648	-0.043095	9.777861	-0.333023	-0.942901	-0.005743	0.942900	-0.333049	0.004320	-0.005986	-0.003977	0.999974	
4278														-0.064802	-0.042202	9.792501	-0.333013	-0.942905	-0.005715	0.942903	-0.333039	0.004339	-0.005994	-0.003944	0.999974	
4279														-0.078878	-0.040001	9.777495	-0.333020	-0.942902	-0.005715	0.942901	-0.333046	0.004340	-0.005995	-0.003943	0.999974	
4280														-0.064357	-0.041786	9.777868	-0.332989	-0.942914	-0.005699	0.942912	-0.333015	0.004366	-0.006015	-0.003920	0.999974	
4281														-0.083480	-0.067680	9.792995	-0.333018	-0.942903	-0.005707	0.942901	-0.333044	0.004354	-0.006006	-0.003932	0.999974	
4282														-0.064026	-0.041119	9.777873	-0.333026	-0.942900	-0.005694	0.942898	-0.333052	0.004347	-0.005995	-0.003921	0.999974	
4283														-0.080428	-0.053142	9.777936	-0.333036	-0.942897	-0.005710	0.942895	-0.333062	0.004321	-0.005976	-0.003944	0.999974	
4284														-0.065413	-0.055633	9.763671	-0.333025	-0.942901	-0.005709	0.942899	-0.333051	0.004321	-0.005976	-0.003944	0.999974	
4285														-0.063408	-0.040312	9.777881	-0.333033	-0.942898	-0.005702	0.942896	-0.333058	0.004335	-0.005986	-0.003932	0.999974	
4286														-0.080011	-0.052217	9.777944	-0.333041	-0.942895	-0.005702	0.942893	-0.333067	0.004336	-0.005987	-0.003932	0.999974	
4287														-0.048869	-0.041882	9.778254	-0.333067	-0.942886	-0.005721	0.942884	-0.333093	0.004365	-0.006021	-0.003940	0.999974	
4288														-0.065582	-0.053883	9.778317	-0.333038	-0.942896	-0.005721	0.942894	-0.333064	0.004365	-0.006021	-0.003940	0.999974	
4289														-0.060870	-0.025149	9.762816	-0.332989	-0.942913	-0.005739	0.942911	-0.333015	0.004393	-0.006053	-0.003948	0.999974	
4290														-0.063452	-0.038813	9.777887	-0.333016	-0.942904	-0.005731	0.942902	-0.333042	0.004407	-0.006064	-0.003936	0.999974	
4291														-0.077490	-0.036788	9.762881	-0.332987	-0.942914	-0.005738	0.942912	-0.333013	0.004394	-0.006054	-0.003948	0.999974	
4292														-0.077910	-0.035672	9.792158	-0.332995	-0.942911	-0.005759	0.942909	-0.333021	0.004389	-0.006056	-0.003969	0.999974	
4293														-0.064666	-0.053644	9.749051	-0.333002	-0.942908	-0.005773	0.942907	-0.333028	0.004397	-0.006068	-0.003979	0.999974	
4294														-0.082571	-0.063608	9.807666	-0.333011	-0.942906	-0.005757	0.942903	-0.333037	0.004424	-0.006089	-0.003955	0.999974	
4295														-0.077917	-0.034713	9.792161	-0.332999	-0.942909	-0.005762	0.942907	-0.333026	0.004445	-0.006110	-0.003953	0.999974	
4296														-0.065612	-0.051067	9.792968	-0.333009	-0.942906	-0.005763	0.942904	-0.333035	0.004445	-0.006110	-0.003953	0.999974	
4297														-0.079896	-0.048513	9.792601	-0.333017	-0.942903	-0.005749	0.942901	-0.333043	0.004438	-0.006099	-0.003943	0.999974	
4298														-0.064788	-0.051470	9.763698	-0.332987	-0.942914	-0.005788	0.942912	-0.333013	0.004461	-0.006134	-0.003973	0.999973	
4299														-0.081688	-0.063003	9.778404	-0.333015	-0.942904	-0.005763	0.942902	-0.333041	0.004447	-0.006112	-0.003953	0.999974	
4300														-0.094358	-0.044896	9.806876	-0.332984	-0.942915	-0.005755	0.942913	-0.333010	0.004460	-0.006122	-0.003941	0.999973	
4301														-0.080892	-0.063144	9.749137	-0.332971	-0.942919	-0.005760	0.942917	-0.332998	0.004481	-0.006144	-0.003939	0.999973	
4302														-0.062929	-0.034650	9.792543	-0.332959	-0.942924	-0.005773	0.942921	-0.332986	0.004490	-0.006156	-0.003948	0.999973	
4303														-0.091802	-0.030008	9.791804	-0.332948	-0.942928	-0.005773	0.942925	-0.332975	0.004490	-0.006156	-0.003948	0.999973	
4304														-0.066693	-0.063422	9.778790	-0.332957	-0.942925	-0.005746	0.942922	-0.332983	0.004476	-0.006134	-0.003928	0.999973	
4305														-0.076162	-0.032317	9.762907	-0.332927	-0.942935	-0.005732	0.942933	-0.332953	0.004468	-0.006122	-0.003918	0.999974	
4306														-0.078513	-0.045888	9.777988	-0.332954	-0.942926	-0.005725	0.942923	-0.332981	0.004482	-0.006133	-0.003906	0.999974	
4307														-0.078485	-0.045572	9.777990	-0.332982	-0.942916	-0.005739	0.942913	-0.333008	0.004490	-0.006145	-0.003916	0.999973	
4308														-0.078808	-0.044812	9.792628	-0.332970	-0.942920	-0.005744	0.942917	-0.332996	0.004511	-0.006167	-0.003914	0.999973	
4309														-0.078117	-0.045431	9.763356	-0.332960	-0.942924	-0.005731	0.942921	-0.332986	0.004504	-0.006155	-0.003904	0.999973	
4310														-0.078277	-0.044629	9.777996	-0.332968	-0.942921	-0.005744	0.942918	-0.332995	0.004512	-0.006168	-0.003914	0.999973	
4311														-0.076356	-0.029448	9.792191	-0.332976	-0.942918	-0.005758	0.942915	-0.333003	0.004521	-0.006180	-0.003924	0.999973	
4312														-0.080665	-0.058140	9.793079	-0.332986	-0.942914	-0.005758	0.942911	-0.333013	0.004521	-0.006180	-0.003924	0.999973	
4313														-0.078286	-0.043412	9.792638	-0.333014	-0.942904	-0.005766	0.942902	-0.333040	0.004509	-0.006172	-0.003935	0.999973	
4314														-0.065874	-0.059973	9.793453	-0.332967	-0.942921	-0.005800	0.942918	-0.332994	0.004510	-0.006184	-0.003967	0.999973	
4315														-0.078073	-0.043052	9.792642	-0.332975	-0.942918	-0.005779	0.942915	-0.333002	0.004516	-0.006183	-0.003945	0.999973	
4316														-0.077573	-0.043085	9.778008	-0.332984	-0.942915	-0.005766	0.942912	-0.333010	0.004509	-0.006172	-0.003935	0.999973	
4317														-0.077636	-0.042393	9.792648	-0.332992	-0.942912	-0.005794	0.942909	-0.333019	0.004491	-0.006164	-0.003968	0.999973	
4318														-0.060254	-0.031095	9.763297	-0.332981	-0.942915	-0.005828	0.942913	-0.333008	0.004493	-0.006177	-0.003999	0.999973	
4319														-0.077300	-0.042676	9.778012	-0.332969	-0.942920	-0.005826	0.942917	-0.332997	0.004527	-0.006209	-0.003986	0.999973	
4320														-0.074709	-0.028120	9.762931	-0.332997	-0.942910	-0.005779	0.942908	-0.333024	0.004519	-0.006186	-0.003944	0.999973	
4321														-0.062812	-0.043319	9.793024	-0.333005	-0.942907	-0.005792	0.942905	-0.333032	0.004527	-0.006197	-0.003954	0.999973	
4322														-0.093826	-0.053236	9.792738	-0.332957	-0.942924	-0.005799	0.942922	-0.332984	0.004513	-0.006187	-0.003965	0.999973	
4323														-0.091446	-0.038507	9.792293	-0.332967	-0.942921	-0.005799	0.942918	-0.332994	0.004514	-0.006187	-0.003965	0.999973	
4324														-0.076531	-0.040872	9.778026	-0.332976	-0.942917	-0.005799	0.942915	-0.333003	0.004514	-0.006187	-0.003965	0.999973	
4325														-0.091170	-0.037890	9.792298	-0.332966	-0.942921	-0.005799	0.942918	-0.332993	0.004514	-0.006188	-0.003965	0.999973	
4326														-0.063601	-0.057357	9.764212	-0.332957	-0.942924	-0.005785	0.942922	-0.332984	0.004507	-0.006176	-0.003955	0.999973	
4327														-0.076243	-0.039404	9.792671	-0.332949	-0.942927	-0.005793	0.942925	-0.332975	0.004494	-0.006166	-0.003966	0.999973	
4328														-0.073142	-0.043262	9.796537	-0.332957	-0.942924	-0.005798	0.942922	-0.332984	0.004497	-0.006171	-0.003970	0.999973	
4329														-0.070041	-0.047120	9.800402	-0.332966	-0.942921	-0.005804	0.942919	-0.332992	0.004500	-0.006176	-0.003974	0.999973	
4330														-0.078235	-0.053149	9.793128	-0.332955	-0.942925	-0.005824	0.942922	-0.332982	0.004531	-0.006212	-0.003983	0.999973	
4331														-0.088128	-0.022199	9.777220	-0.332943	-0.942929	-0.005816	0.942926	-0.332970	0.004544	-0.006222	-0.003971	0.999973	
4332														-0.075742	-0.038587	9.778041	-0.332930	-0.942933	-0.005836	0.942931	-0.332957	0.004539	-0.006224	-0.003992	0.999973	
4333														-0.077732	-0.052813	9.778497	-0.332918	-0.942938	-0.005823	0.942935	-0.332945	0.004532	-0.006212	-0.003982	0.999973	
4334														-0.061167	-0.039641	9.793050	-0.332906	-0.942942	-0.005823	0.942940	-0.332933	0.004533	-0.006213	-0.003982	0.999973	
4335														-0.074814	-0.038178	9.763413	-0.332893	-0.942947	-0.005817	0.942944	-0.332920	0.004513	-0.006192	-0.003983	0.999973	
4336														-0.060184	-0.039931	9.763782	-0.332899	-0.942945	-0.005801	0.942942	-0.332926	0.004540	-0.006212	-0.003959	0.999973	
4337														-0.077326	-0.050659	9.793148	-0.332890	-0.942948	-0.005767	0.942945	-0.332916	0.004538	-0.006200	-0.003927	0.999973	
4338														-0.075014	-0.035975	9.792694	-0.332861	-0.942958	-0.005821	0.942956	-0.332888	0.004535	-0.006214	-0.003980	0.999973	
4339														-0.074600	-0.036487	9.778058	-0.332851	-0.942961	-0.005829	0.942959	-0.332878	0.004522	-0.006204	-0.003991	0.999973	
4340														-0.077127	-0.049759	9.807791	-0.332880	-0.942951	-0.005837	0.942949	-0.332907	0.004509	-0.006195	-0.004003	0.999973	
4341														-0.062107	-0.052125	9.793522	-0.332869	-0.942955	-0.005823	0.942953	-0.332896	0.004502	-0.006184	-0.003992	0.999973	
4342														-0.059550	-0.037785	9.778431	-0.332876	-0.942953	-0.005829	0.942950	-0.332903	0.004523	-0.006206	-0.003991	0.999973	
4343														-0.088645	-0.033188	9.777700	-0.332862	-0.942957	-0.005847	0.942955	-0.332889	0.004552	-0.006239	-0.003999	0.999973	
4344														-0.076649	-0.049052	9.793161	-0.332870	-0.942955	-0.005847	0.942952	-0.332897	0.004553	-0.006240	-0.003998	0.999973	
4345														-0.060192	-0.035753	9.807708	-0.332879	-0.942952	-0.005819	0.942949	-0.332906	0.004573	-0.006249	-0.003965	0.999973	
4346														-0.061441	-0.051334	9.764259	-0.332888	-0.942948	-0.005833	0.942946	-0.332916	0.004581	-0.006261	-0.003975	0.999972	
4347														-0.076781	-0.047438	9.807805	-0.332895	-0.942946	-0.005846	0.942943	-0.332923	0.004589	-0.006274	-0.003985	0.999972	
4348														-0.076355	-0.047743	9.793170	-0.332887	-0.942949	-0.005853	0.942946	-0.332914	0.004576	-0.006264	-0.003996	0.999972	
4349														-0.063611	-0.064684	9.779361	-0.332876	-0.942952	-0.005867	0.942950	-0.332904	0.004584	-0.006275	-0.004006	0.999972	
4350														-0.075948	-0.047780	9.778537	-0.332866	-0.942956	-0.005872	0.942953	-0.332894	0.004605	-0.006297	-0.004004	0.999972	
4351														-0.059215	-0.035194	9.778442	-0.332876	-0.942952	-0.005880	0.942950	-0.332903	0.004592	-0.006287	-0.004016	0.999972	
4352														-0.076368	-0.046238	9.807814	-0.332865	-0.942956	-0.005885	0.942954	-0.332892	0.004613	-0.006309	-0.004014	0.999972	
4353														-0.092437	-0.059108	9.778640	-0.332873	-0.942953	-0.005856	0.942950	-0.332901	0.004632	-0.006317	-0.003980	0.999972	
4354														-0.056829	-0.019558	9.777985	-0.332863	-0.942957	-0.005864	0.942954	-0.332890	0.004619	-0.006308	-0.003992	0.999972	
4355														-0.077605	-0.060489	9.779013	-0.332851	-0.942961	-0.005843	0.942958	-0.332879	0.004625	-0.006306	-0.003970	0.999972	
4356														-0.071208	-0.016071	9.792260	-0.332859	-0.942959	-0.005829	0.942956	-0.332886	0.004618	-0.006295	-0.003960	0.999972	
4357														-0.074704	-0.045758	9.763920	-0.332868	-0.942955	-0.005837	0.942952	-0.332895	0.004605	-0.006286	-0.003971	0.999972	
4358														-0.062886	-0.061205	9.794024	-0.332837	-0.942966	-0.005863	0.942963	-0.332865	0.004621	-0.006309	-0.003990	0.999972	
4359														-0.077344	-0.058844	9.793661	-0.332865	-0.942956	-0.005863	0.942953	-0.332892	0.004621	-0.006310	-0.003990	0.999972	
4360														-0.087294	-0.027924	9.777729	-0.332872	-0.942954	-0.005875	0.942951	-0.332900	0.004664	-0.006353	-0.003987	0.999972	
4361														-0.062380	-0.061534	9.764755	-0.332881	-0.942950	-0.005903	0.942947	-0.332909	0.004645	-0.006345	-0.004020	0.999972	
4362														-0.074874	-0.044292	9.778561	-0.332852	-0.942961	-0.005916	0.942958	-0.332880	0.004653	-0.006356	-0.004030	0.999972	
4363														-0.058442	-0.031285	9.793097	-0.332822	-0.942971	-0.005936	0.942968	-0.332850	0.004647	-0.006358	-0.004051	0.999972	
4364														-0.060521	-0.045610	9.793565	-0.333147	-0.942856	-0.005937	0.942854	-0.333175	0.004515	-0.006235	-0.004094	0.999972	
4365														-0.074681	-0.043664	9.778566	-0.333129	-0.942863	-0.005929	0.942861	-0.333157	0.004529	-0.006245	-0.004082	0.999972	
4366														-0.074938	-0.042830	9.793204	-0.333137	-0.942860	-0.005943	0.942858	-0.333165	0.004537	-0.006257	-0.004092	0.999972	
4367														-0.074912	-0.042618	9.793205	-0.333133	-0.942861	-0.005956	0.942859	-0.333161	0.004544	-0.006269	-0.004102	0.999972	
4368														-0.091274	-0.055102	9.778674	-0.333138	-0.942859	-0.005941	0.942857	-0.333166	0.004571	-0.006289	-0.004079	0.999972	
4369														-0.072198	-0.028319	9.763466	-0.333115	-0.942867	-0.005933	0.942865	-0.333143	0.004584	-0.006299	-0.004067	0.999972	
4370														-0.074796	-0.041456	9.793211	-0.333149	-0.942855	-0.005941	0.942853	-0.333177	0.004572	-0.006290	-0.004079	0.999972	
4371														-0.074423	-0.041714	9.778576	-0.333132	-0.942862	-0.005947	0.942859	-0.333160	0.004593	-0.006311	-0.004077	0.999972	
4372														-0.074681	-0.040878	9.793214	-0.333134	-0.942861	-0.005947	0.942858	-0.333162	0.004593	-0.006312	-0.004077	0.999972	
4373														-0.089198	-0.038577	9.792850	-0.333125	-0.942864	-0.005986	0.942861	-0.333154	0.004616	-0.006347	-0.004107	0.999971	
4374														-0.062636	-0.056602	9.808688	-0.333116	-0.942867	-0.005973	0.942865	-0.333144	0.004608	-0.006335	-0.004097	0.999972	
4375														-0.073910	-0.041290	9.763946	-0.333110	-0.942869	-0.005994	0.942867	-0.333138	0.004603	-0.006336	-0.004118	0.999971	
4376														-0.088858	-0.038015	9.792855	-0.333137	-0.942859	-0.006015	0.942857	-0.333166	0.004598	-0.006339	-0.004139	0.999971	
4377														-0.061939	-0.056402	9.794059	-0.333110	-0.942869	-0.005986	0.942867	-0.333138	0.004617	-0.006347	-0.004106	0.999971	
4378														-0.059758	-0.041601	9.793587	-0.333133	-0.942861	-0.006020	0.942858	-0.333162	0.004619	-0.006361	-0.004138	0.999971	
4379														-0.071788	-0.025295	9.778115	-0.333139	-0.942859	-0.006013	0.942856	-0.333167	0.004633	-0.006371	-0.004126	0.999971	
4380														-0.063694	-0.070454	9.779902	-0.333145	-0.942857	-0.006005	0.942854	-0.333174	0.004647	-0.006382	-0.004114	0.999971	
4381														-0.059655	-0.040543	9.793593	-0.333132	-0.942861	-0.005997	0.942859	-0.333161	0.004660	-0.006392	-0.004102	0.999971	
4382														-0.073363	-0.039098	9.763959	-0.333123	-0.942864	-0.005991	0.942862	-0.333152	0.004639	-0.006370	-0.004104	0.999971	
4383														-0.073659	-0.037912	9.793234	-0.333130	-0.942862	-0.006020	0.942859	-0.333159	0.004620	-0.006362	-0.004137	0.999971	
4384														-0.075607	-0.052037	9.793713	-0.333141	-0.942858	-0.005978	0.942856	-0.333169	0.004632	-0.006359	-0.004094	0.999971	
4385														-0.070837	-0.023236	9.778127	-0.333106	-0.942870	-0.006006	0.942868	-0.333135	0.004613	-0.006350	-0.004127	0.999971	
4386														-0.073245	-0.037088	9.793240	-0.333093	-0.942875	-0.006025	0.942872	-0.333121	0.004641	-0.006383	-0.004135	0.999971	
4387														-0.060328	-0.054375	9.764810	-0.333082	-0.942879	-0.006004	0.942876	-0.333111	0.004647	-0.006381	-0.004113	0.999971	
4388														-0.075248	-0.050782	9.793722	-0.333090	-0.942876	-0.006004	0.942873	-0.333119	0.004647	-0.006382	-0.004113	0.999971	
4389														-0.075052	-0.050424	9.793726	-0.333078	-0.942880	-0.005991	0.942878	-0.333106	0.004640	-0.006370	-0.004103	0.999971	
4390														-0.057465	-0.039279	9.749704	-0.333069	-0.942883	-0.005996	0.942881	-0.333098	0.004660	-0.006391	-0.004101	0.999971	
4391														-0.074767	-0.049699	9.793731	-0.333116	-0.942867	-0.005978	0.942864	-0.333145	0.004633	-0.006360	-0.004093	0.999971	
4392														-0.072141	-0.035280	9.778619	-0.333086	-0.942878	-0.005962	0.942875	-0.333114	0.004659	-0.006379	-0.004070	0.999971	
4393														-0.071767	-0.035548	9.763984	-0.333097	-0.942874	-0.005991	0.942871	-0.333125	0.004640	-0.006371	-0.004103	0.999971	
4394														-0.073867	-0.049715	9.764467	-0.333089	-0.942877	-0.005967	0.942874	-0.333117	0.004679	-0.006400	-0.004068	0.999971	
4395														-0.072601	-0.033163	9.807895	-0.333040	-0.942894	-0.005967	0.942891	-0.333068	0.004679	-0.006399	-0.004068	0.999971	
4396														-0.073664	-0.048879	9.764473	-0.333029	-0.942898	-0.005953	0.942895	-0.333058	0.004671	-0.006387	-0.004058	0.999971	
4397														-0.088648	-0.045438	9.793384	-0.333035	-0.942896	-0.005980	0.942893	-0.333064	0.004687	-0.006411	-0.004078	0.999971	
4398														-0.072109	-0.032853	9.793264	-0.333045	-0.942892	-0.005986	0.942889	-0.333073	0.004708	-0.006432	-0.004076	0.999971	
4399														-0.073860	-0.047503	9.779114	-0.333033	-0.942896	-0.005972	0.942893	-0.333062	0.004700	-0.006421	-0.004066	0.999971	
4400														-0.059575	-0.048932	9.794113	-0.332985	-0.942913	-0.006019	0.942910	-0.333014	0.004709	-0.006444	-0.004107	0.999971	
4401														-0.073970	-0.046449	9.793753	-0.332992	-0.942911	-0.005963	0.942908	-0.333021	0.004713	-0.006430	-0.004054	0.999971	
4402														-0.075656	-0.060947	9.779607	-0.332999	-0.942908	-0.005977	0.942905	-0.333028	0.004721	-0.006442	-0.004064	0.999971	
4403														-0.058909	-0.048372	9.779485	-0.333009	-0.942905	-0.005984	0.942902	-0.333038	0.004707	-0.006432	-0.004075	0.999971	
4404														-0.073455	-0.045528	9.793762	-0.333037	-0.942895	-0.005992	0.942892	-0.333066	0.004695	-0.006422	-0.004086	0.999971	
4405														-0.073032	-0.045753	9.779128	-0.333045	-0.942892	-0.005984	0.942889	-0.333074	0.004708	-0.006433	-0.004074	0.999971	
4406														-0.070819	-0.030902	9.778643	-0.333055	-0.942889	-0.005984	0.942886	-0.333083	0.004708	-0.006433	-0.004074	0.999971	
4407														-0.072653	-0.045143	9.779134	-0.333065	-0.942885	-0.005986	0.942882	-0.333094	0.004674	-0.006401	-0.004087	0.999971	
4408														-0.072455	-0.044784	9.779137	-0.333038	-0.942895	-0.005970	0.942892	-0.333066	0.004700	-0.006420	-0.004064	0.999971	
4409														-0.072656	-0.043988	9.793775	-0.333048	-0.942891	-0.005999	0.942888	-0.333077	0.004681	-0.006412	-0.004097	0.999971	
4410														-0.086836	-0.042202	9.778779	-0.333058	-0.942887	-0.005997	0.942884	-0.333087	0.004715	-0.006443	-0.004084	0.999971	
4411														-0.072411	-0.043883	9.779141	-0.333069	-0.942884	-0.005989	0.942880	-0.333098	0.004728	-0.006453	-0.004072	0.999971	
4412														-0.074156	-0.058540	9.764998	-0.333076	-0.942881	-0.005989	0.942878	-0.333105	0.004729	-0.006453	-0.004072	0.999971	
4413														-0.072290	-0.043200	9.779145	-0.333084	-0.942878	-0.005995	0.942875	-0.333113	0.004750	-0.006475	-0.004070	0.999971	
4414														-0.072361	-0.042876	9.779146	-0.333072	-0.942882	-0.006000	0.942879	-0.333101	0.004770	-0.006497	-0.004068	0.999971	
4415														-0.074286	-0.057004	9.779641	-0.333100	-0.942872	-0.005981	0.942869	-0.333129	0.004743	-0.006464	-0.004060	0.999971	
4416														-0.071801	-0.042797	9.764515	-0.333086	-0.942877	-0.006013	0.942874	-0.333116	0.004779	-0.006509	-0.004078	0.999971	
4417														-0.087083	-0.039118	9.793426	-0.333094	-0.942875	-0.005969	0.942871	-0.333123	0.004824	-0.006537	-0.004021	0.999971	
4418														-0.074879	-0.055272	9.794281	-0.333101	-0.942872	-0.006009	0.942868	-0.333131	0.004847	-0.006572	-0.004051	0.999970	
4419														-0.055558	-0.029274	9.764385	-0.333128	-0.942862	-0.005996	0.942859	-0.333158	0.004840	-0.006561	-0.004041	0.999970	
4420														-0.057868	-0.042749	9.779518	-0.333136	-0.942860	-0.005980	0.942856	-0.333165	0.004867	-0.006581	-0.004018	0.999970	
4421														-0.074720	-0.054167	9.794289	-0.333126	-0.942863	-0.005980	0.942859	-0.333156	0.004866	-0.006580	-0.004017	0.999970	
4422														-0.072235	-0.039962	9.779160	-0.333136	-0.942860	-0.005993	0.942856	-0.333165	0.004874	-0.006592	-0.004027	0.999970	
4423														-0.059986	-0.056275	9.780018	-0.333143	-0.942857	-0.006004	0.942853	-0.333172	0.004916	-0.006635	-0.004024	0.999970	
4424														-0.073023	-0.038486	9.808431	-0.333114	-0.942867	-0.006045	0.942863	-0.333144	0.004904	-0.006637	-0.004066	0.999970	
4425														-0.071877	-0.039975	9.764527	-0.333143	-0.942857	-0.006027	0.942853	-0.333173	0.004875	-0.006605	-0.004058	0.999970	
4426														-0.059527	-0.055507	9.780025	-0.333151	-0.942854	-0.005999	0.942850	-0.333181	0.004895	-0.006614	-0.004025	0.999970	
4427														-0.071859	-0.038393	9.779169	-0.333139	-0.942859	-0.005990	0.942855	-0.333169	0.004908	-0.006623	-0.004013	0.999970	
4428														-0.059621	-0.054123	9.794666	-0.333129	-0.942862	-0.005997	0.942858	-0.333158	0.004894	-0.006613	-0.004024	0.999970	
4429														-0.073536	-0.052325	9.779673	-0.333155	-0.942853	-0.005992	0.942849	-0.333185	0.004874	-0.006592	-0.004025	0.999970	
4430														-0.073396	-0.052016	9.779676	-0.333123	-0.942864	-0.005997	0.942860	-0.333152	0.004895	-0.006613	-0.004023	0.999970	
4431														-0.056864	-0.039300	9.779538	-0.333129	-0.942862	-0.006002	0.942858	-0.333159	0.004916	-0.006635	-0.004022	0.999970	
4432														-0.087710	-0.049189	9.779320	-0.333158	-0.942852	-0.005970	0.942848	-0.333187	0.004880	-0.006590	-0.004003	0.999970	
4433														-0.058727	-0.052693	9.794680	-0.333165	-0.942849	-0.006025	0.942845	-0.333195	0.004876	-0.006605	-0.004056	0.999970	
4434														-0.071089	-0.035898	9.793819	-0.333179	-0.942844	-0.005997	0.942840	-0.333209	0.004894	-0.006613	-0.004023	0.999970	
4435														-0.068552	-0.021544	9.778684	-0.333167	-0.942849	-0.006004	0.942845	-0.333197	0.004881	-0.006603	-0.004035	0.999970	
4436														-0.059947	-0.067339	9.765918	-0.333158	-0.942852	-0.005996	0.942848	-0.333188	0.004894	-0.006612	-0.004023	0.999970	
4437														-0.072243	-0.050393	9.765058	-0.333150	-0.942855	-0.005996	0.942851	-0.333179	0.004893	-0.006611	-0.004023	0.999970	
4438														-0.084965	-0.032518	9.793468	-0.333158	-0.942852	-0.006010	0.942848	-0.333187	0.004867	-0.006591	-0.004045	0.999970	
4439														-0.070234	-0.034412	9.793831	-0.333149	-0.942855	-0.006009	0.942851	-0.333178	0.004866	-0.006590	-0.004045	0.999970	
4440														-0.070028	-0.034743	9.779196	-0.333136	-0.942860	-0.006041	0.942856	-0.333166	0.004902	-0.006634	-0.004063	0.999970	
4441														-0.074359	-0.063443	9.780204	-0.333161	-0.942851	-0.006033	0.942847	-0.333191	0.004916	-0.006645	-0.004051	0.999970	
4442														-0.070109	-0.033939	9.779198	-0.333131	-0.942861	-0.006005	0.942857	-0.333161	0.004934	-0.006653	-0.004018	0.999970	
4443														-0.086270	-0.046477	9.764711	-0.333142	-0.942857	-0.006012	0.942853	-0.333172	0.004920	-0.006642	-0.004029	0.999970	
4444														-0.057897	-0.048799	9.809339	-0.333153	-0.942854	-0.006019	0.942850	-0.333183	0.004907	-0.006632	-0.004040	0.999970	
4445														-0.069597	-0.033124	9.779204	-0.333161	-0.942851	-0.006032	0.942847	-0.333191	0.004914	-0.006643	-0.004050	0.999970	
4446														-0.073662	-0.061897	9.780219	-0.333168	-0.942848	-0.006040	0.942844	-0.333198	0.004901	-0.006633	-0.004061	0.999970	
4447														-0.073591	-0.061743	9.780221	-0.333195	-0.942838	-0.006066	0.942834	-0.333225	0.004917	-0.006657	-0.004081	0.999970	
4448														-0.084046	-0.029923	9.793485	-0.333180	-0.942844	-0.006060	0.942840	-0.333211	0.004896	-0.006635	-0.004082	0.999970	
4449														-0.085953	-0.044159	9.793995	-0.333189	-0.942841	-0.006073	0.942837	-0.333219	0.004903	-0.006647	-0.004092	0.999970	
4450														-0.073411	-0.060422	9.794864	-0.333160	-0.942851	-0.006059	0.942847	-0.333190	0.004895	-0.006634	-0.004082	0.999970	
4451														-0.070956	-0.046332	9.779722	-0.333168	-0.942848	-0.006106	0.942844	-0.333198	0.004905	-0.006659	-0.004123	0.999969	
4452														-0.071116	-0.045678	9.794359	-0.333177	-0.942845	-0.006100	0.942841	-0.333207	0.004884	-0.006637	-0.004125	0.999969	
4453														-0.073020	-0.059914	9.794871	-0.333166	-0.942848	-0.006113	0.942845	-0.333197	0.004891	-0.006648	-0.004134	0.999969	
4454														-0.082915	-0.029206	9.778860	-0.333155	-0.942852	-0.006120	0.942849	-0.333185	0.004877	-0.006638	-0.004146	0.999969	
4455														-0.070034	-0.045973	9.765096	-0.333166	-0.942848	-0.006099	0.942845	-0.333196	0.004882	-0.006636	-0.004124	0.999969	
4456														-0.070836	-0.043882	9.809004	-0.333157	-0.942852	-0.006105	0.942848	-0.333187	0.004903	-0.006656	-0.004122	0.999969	
4457														-0.085241	-0.041437	9.808648	-0.333163	-0.942849	-0.006091	0.942846	-0.333194	0.004895	-0.006645	-0.004112	0.999969	
4458														-0.068065	-0.029927	9.779225	-0.333132	-0.942860	-0.006130	0.942857	-0.333163	0.004917	-0.006679	-0.004142	0.999969	
4459														-0.084767	-0.041960	9.779380	-0.333139	-0.942858	-0.006094	0.942854	-0.333169	0.004949	-0.006697	-0.004097	0.999969	
4460														-0.070329	-0.043501	9.779740	-0.333147	-0.942855	-0.006099	0.942851	-0.333177	0.004970	-0.006718	-0.004095	0.999969	
4461														-0.070474	-0.042633	9.794377	-0.333156	-0.942852	-0.006093	0.942848	-0.333186	0.004949	-0.006696	-0.004096	0.999969	
4462														-0.070224	-0.042225	9.794381	-0.333164	-0.942849	-0.006071	0.942845	-0.333194	0.004955	-0.006694	-0.004074	0.999969	
4463														-0.086380	-0.054787	9.779906	-0.333172	-0.942846	-0.006071	0.942842	-0.333203	0.004955	-0.006694	-0.004073	0.999969	
4464														-0.086696	-0.053364	9.809179	-0.333163	-0.942850	-0.006065	0.942846	-0.333193	0.004933	-0.006672	-0.004075	0.999969	
4465														-0.069365	-0.041815	9.779754	-0.333173	-0.942846	-0.006078	0.942842	-0.333203	0.004941	-0.006683	-0.004085	0.999969	
4466														-0.084010	-0.038978	9.794034	-0.333163	-0.942849	-0.006085	0.942846	-0.333194	0.004927	-0.006673	-0.004096	0.999969	
4467														-0.083925	-0.038612	9.794036	-0.333208	-0.942834	-0.006071	0.942830	-0.333239	0.004954	-0.006694	-0.004073	0.999969	
4468														-0.070589	-0.056496	9.751007	-0.333234	-0.942824	-0.006079	0.942820	-0.333265	0.004941	-0.006684	-0.004084	0.999969	
4469														-0.083714	-0.038043	9.794040	-0.333224	-0.942828	-0.006091	0.942824	-0.333255	0.004948	-0.006695	-0.004094	0.999969	
4470														-0.069185	-0.039796	9.794398	-0.333252	-0.942818	-0.006084	0.942814	-0.333282	0.004962	-0.006706	-0.004083	0.999969	
4471														-0.071116	-0.053766	9.794920	-0.333261	-0.942815	-0.006050	0.942811	-0.333292	0.004960	-0.006693	-0.004051	0.999969	
4472														-0.070919	-0.053407	9.794924	-0.333251	-0.942819	-0.006071	0.942814	-0.333282	0.004954	-0.006694	-0.004073	0.999969	
4473														-0.085056	-0.051644	9.779934	-0.333278	-0.942809	-0.006063	0.942805	-0.333308	0.004967	-0.006704	-0.004061	0.999969	
4474														-0.070122	-0.053757	9.765660	-0.333229	-0.942827	-0.006028	0.942822	-0.333259	0.004964	-0.006689	-0.004029	0.999970	
4475														-0.068394	-0.037670	9.794412	-0.333236	-0.942824	-0.006028	0.942820	-0.333266	0.004964	-0.006689	-0.004029	0.999970	
4476														-0.068533	-0.036793	9.809049	-0.333224	-0.942828	-0.006027	0.942824	-0.333255	0.004964	-0.006689	-0.004028	0.999970	
4477														-0.084467	-0.050093	9.779947	-0.333233	-0.942825	-0.006040	0.942821	-0.333263	0.004971	-0.006700	-0.004038	0.999969	
4478														-0.066062	-0.022290	9.793895	-0.333220	-0.942830	-0.006031	0.942825	-0.333250	0.004984	-0.006709	-0.004026	0.999969	
4479														-0.067937	-0.036317	9.794421	-0.333248	-0.942820	-0.006005	0.942815	-0.333278	0.004969	-0.006686	-0.004005	0.999970	
4480														-0.086161	-0.063391	9.780481	-0.333236	-0.942824	-0.006010	0.942820	-0.333266	0.004990	-0.006707	-0.004003	0.999969	
4481														-0.069229	-0.051271	9.765680	-0.333263	-0.942815	-0.006017	0.942810	-0.333293	0.004976	-0.006697	-0.004014	0.999970	
4482														-0.084048	-0.047874	9.794596	-0.333254	-0.942818	-0.006024	0.942813	-0.333284	0.004963	-0.006687	-0.004026	0.999970	
4483														-0.069405	-0.049520	9.794955	-0.333283	-0.942808	-0.005996	0.942803	-0.333313	0.004981	-0.006695	-0.003993	0.999970	
4484														-0.055092	-0.050642	9.809947	-0.333050	-0.942890	-0.006096	0.942886	-0.333080	0.004814	-0.006569	-0.004144	0.999970	
4485														-0.069004	-0.049512	9.780324	-0.333040	-0.942893	-0.006101	0.942890	-0.333070	0.004834	-0.006590	-0.004143	0.999970	
4486														-0.069343	-0.048510	9.794960	-0.333030	-0.942896	-0.006086	0.942893	-0.333061	0.004860	-0.006609	-0.004120	0.999970	
4487														-0.082651	-0.048481	9.736068	-0.333060	-0.942886	-0.006115	0.942883	-0.333090	0.004841	-0.006601	-0.004153	0.999970	
4488														-0.066734	-0.034077	9.779802	-0.333087	-0.942876	-0.006094	0.942873	-0.333117	0.004846	-0.006600	-0.004132	0.999970	
