// Start Time: Unknown: 
// Update Rate: 60.0Hz 
// Filter Profile: human (46.1) 
// Firmware Version: 4.6.0
PacketCounter	SampleTimeFine	Year	Month	Day	Second	UTC_Nano	UTC_Year	UTC_Month	UTC_Day	UTC_Hour	UTC_Minute	UTC_Second	UTC_Valid	Acc_X	Acc_Y	Acc_Z	Mat[1][1]	Mat[2][1]	Mat[3][1]	Mat[1][2]	Mat[2][2]	Mat[3][2]	Mat[1][3]	Mat[2][3]	Mat[3][3] 
3598														-0.054539	0.013346	9.818151	-0.605889	0.795534	-0.004928	-0.795516	-0.605909	-0.005364	-0.007253	0.000670	0.999973	
3599														-0.070651	-0.015668	9.817378	-0.605898	0.795527	-0.004894	-0.795510	-0.605917	-0.005371	-0.007238	0.000639	0.999974	
3600														-0.083854	0.014302	9.787955	-0.605868	0.795550	-0.004945	-0.795532	-0.605888	-0.005388	-0.007283	0.000669	0.999973	
3601														-0.057353	-0.002016	9.832623	-0.605864	0.795553	-0.004939	-0.795535	-0.605884	-0.005431	-0.007313	0.000638	0.999973	
3602														-0.085568	0.028299	9.817384	-0.605872	0.795546	-0.004941	-0.795528	-0.605892	-0.005410	-0.007297	0.000653	0.999973	
3603														-0.071621	0.027521	9.832480	-0.605845	0.795568	-0.004921	-0.795550	-0.605864	-0.005386	-0.007266	0.000652	0.999973	
3604														-0.042845	-0.002744	9.803793	-0.605829	0.795580	-0.004920	-0.795562	-0.605849	-0.005386	-0.007266	0.000651	0.999973	
3605														-0.072460	0.012728	9.817675	-0.605837	0.795574	-0.004919	-0.795556	-0.605857	-0.005386	-0.007265	0.000651	0.999973	
3606														-0.058744	0.011877	9.832771	-0.605845	0.795568	-0.004919	-0.795550	-0.605864	-0.005386	-0.007265	0.000650	0.999973	
3607														-0.074459	-0.002340	9.832148	-0.605853	0.795562	-0.004927	-0.795544	-0.605872	-0.005398	-0.007280	0.000650	0.999973	
3608														-0.088437	0.012932	9.817205	-0.605836	0.795574	-0.004919	-0.795557	-0.605856	-0.005365	-0.007248	0.000663	0.999974	
3609														-0.074442	-0.002423	9.817504	-0.605844	0.795568	-0.004878	-0.795551	-0.605864	-0.005338	-0.007202	0.000647	0.999974	
3610														-0.073716	0.012058	9.803023	-0.605828	0.795580	-0.004875	-0.795563	-0.605848	-0.005360	-0.007217	0.000631	0.999974	
3611														-0.088851	0.026827	9.817359	-0.605848	0.795565	-0.004872	-0.795547	-0.605868	-0.005381	-0.007233	0.000616	0.999974	
3612														-0.075777	0.011335	9.832295	-0.605844	0.795569	-0.004883	-0.795551	-0.605863	-0.005372	-0.007232	0.000630	0.999974	
3613														-0.075267	0.026046	9.817813	-0.605851	0.795563	-0.004892	-0.795545	-0.605871	-0.005383	-0.007247	0.000630	0.999974	
3614														-0.076752	0.011046	9.832288	-0.605860	0.795556	-0.004870	-0.795538	-0.605879	-0.005381	-0.007231	0.000614	0.999974	
3615														-0.076510	0.010891	9.817646	-0.605856	0.795560	-0.004838	-0.795542	-0.605875	-0.005366	-0.007201	0.000598	0.999974	
3616														-0.077430	0.010600	9.832283	-0.605863	0.795554	-0.004868	-0.795536	-0.605882	-0.005381	-0.007230	0.000613	0.999974	
3617														-0.064434	-0.004671	9.847221	-0.605859	0.795557	-0.004891	-0.795540	-0.605878	-0.005362	-0.007229	0.000642	0.999974	
3618														-0.078472	0.010686	9.832275	-0.605854	0.795561	-0.004890	-0.795543	-0.605873	-0.005362	-0.007229	0.000642	0.999974	
3619														-0.078944	-0.004027	9.817468	-0.605862	0.795555	-0.004868	-0.795537	-0.605881	-0.005359	-0.007213	0.000626	0.999974	
3620														-0.063551	0.024450	9.818261	-0.605858	0.795558	-0.004867	-0.795540	-0.605878	-0.005359	-0.007213	0.000625	0.999974	
3621														-0.094230	0.010596	9.831798	-0.605867	0.795551	-0.004846	-0.795533	-0.605886	-0.005357	-0.007198	0.000609	0.999974	
3622														-0.080453	0.009578	9.846904	-0.605876	0.795545	-0.004833	-0.795527	-0.605895	-0.005366	-0.007198	0.000594	0.999974	
3623														-0.066296	-0.005637	9.832565	-0.605859	0.795557	-0.004835	-0.795540	-0.605878	-0.005345	-0.007182	0.000608	0.999974	
3624														-0.080080	0.023988	9.832424	-0.605856	0.795560	-0.004801	-0.795542	-0.605874	-0.005352	-0.007166	0.000577	0.999974	
3625														-0.066954	0.008254	9.847366	-0.605840	0.795572	-0.004797	-0.795554	-0.605858	-0.005373	-0.007181	0.000561	0.999974	
3626														-0.081152	0.009058	9.817611	-0.605835	0.795576	-0.004820	-0.795558	-0.605854	-0.005355	-0.007180	0.000591	0.999974	
3627														-0.067598	0.008338	9.832718	-0.605854	0.795561	-0.004838	-0.795543	-0.605873	-0.005378	-0.007210	0.000591	0.999974	
3628														-0.068197	0.008271	9.832714	-0.605862	0.795555	-0.004850	-0.795537	-0.605881	-0.005369	-0.007209	0.000605	0.999974	
3629														-0.082700	0.023344	9.832404	-0.605870	0.795549	-0.004837	-0.795531	-0.605889	-0.005378	-0.007209	0.000589	0.999974	
3630														-0.069195	-0.006508	9.817901	-0.605878	0.795543	-0.004848	-0.795525	-0.605897	-0.005369	-0.007209	0.000604	0.999974	
3631														-0.069092	-0.006656	9.803259	-0.605887	0.795536	-0.004802	-0.795518	-0.605906	-0.005385	-0.007194	0.000557	0.999974	
3632														-0.084638	0.007825	9.832226	-0.605919	0.795511	-0.004810	-0.795493	-0.605938	-0.005418	-0.007225	0.000543	0.999974	
3633														-0.068992	0.021882	9.803587	-0.605904	0.795524	-0.004787	-0.795505	-0.605922	-0.005416	-0.007209	0.000527	0.999974	
3634														-0.070430	0.006874	9.818056	-0.605924	0.795508	-0.004787	-0.795490	-0.605943	-0.005416	-0.007209	0.000527	0.999974	
3635														-0.070148	0.021438	9.818223	-0.605933	0.795502	-0.004780	-0.795484	-0.605951	-0.005382	-0.007178	0.000541	0.999974	
3636														-0.072144	0.006506	9.847330	-0.605916	0.795514	-0.004810	-0.795496	-0.605934	-0.005397	-0.007207	0.000556	0.999974	
3637														-0.071698	0.006659	9.818047	-0.605900	0.795527	-0.004787	-0.795509	-0.605918	-0.005394	-0.007192	0.000540	0.999974	
3638														-0.073045	0.006136	9.847324	-0.605907	0.795521	-0.004786	-0.795503	-0.605926	-0.005394	-0.007191	0.000539	0.999974	
3639														-0.073280	-0.022828	9.803062	-0.605915	0.795515	-0.004795	-0.795497	-0.605934	-0.005406	-0.007206	0.000539	0.999974	
3640														-0.088166	0.006436	9.832196	-0.605887	0.795536	-0.004760	-0.795518	-0.605906	-0.005413	-0.007191	0.000507	0.999974	
3641														-0.058697	0.019742	9.833326	-0.605907	0.795521	-0.004784	-0.795503	-0.605926	-0.005394	-0.007190	0.000537	0.999974	
3642														-0.073287	0.020339	9.818202	-0.605903	0.795524	-0.004759	-0.795506	-0.605921	-0.005413	-0.007190	0.000506	0.999974	
3643														-0.074225	0.019966	9.832839	-0.605886	0.795537	-0.004770	-0.795519	-0.605905	-0.005404	-0.007189	0.000520	0.999974	
3644														-0.060970	0.004584	9.847788	-0.605746	0.795640	-0.005278	-0.795625	-0.605768	-0.005076	-0.007235	0.001124	0.999973	
3645														-0.074280	0.005482	9.803386	-0.605751	0.795637	-0.005247	-0.795622	-0.605772	-0.005061	-0.007205	0.001109	0.999973	
3646														-0.090114	0.005549	9.832179	-0.605754	0.795635	-0.005238	-0.795620	-0.605776	-0.005048	-0.007190	0.001109	0.999974	
3647														-0.046113	0.003841	9.818989	-0.605776	0.795618	-0.005250	-0.795603	-0.605798	-0.005038	-0.007189	0.001125	0.999974	
3648														-0.074928	0.019519	9.818192	-0.605791	0.795607	-0.005201	-0.795592	-0.605812	-0.004999	-0.007128	0.001110	0.999974	
3649														-0.075988	0.018911	9.847471	-0.605797	0.795602	-0.005180	-0.795587	-0.605818	-0.004996	-0.007113	0.001095	0.999974	
3650														-0.077578	-0.025141	9.832310	-0.605782	0.795614	-0.005158	-0.795599	-0.605803	-0.004993	-0.007098	0.001079	0.999974	
3651														-0.075264	0.018850	9.803548	-0.605779	0.795616	-0.005168	-0.795601	-0.605800	-0.005005	-0.007113	0.001080	0.999974	
3652														-0.077089	0.032724	9.862275	-0.605778	0.795617	-0.005159	-0.795602	-0.605799	-0.004992	-0.007097	0.001080	0.999974	
3653														-0.062369	0.017646	9.833308	-0.605777	0.795618	-0.005149	-0.795603	-0.605798	-0.004980	-0.007082	0.001080	0.999974	
3654														-0.077082	-0.010709	9.788552	-0.605769	0.795624	-0.005149	-0.795609	-0.605790	-0.004979	-0.007081	0.001081	0.999974	
3655														-0.077053	0.018340	9.803535	-0.605751	0.795637	-0.005190	-0.795622	-0.605773	-0.005005	-0.007126	0.001097	0.999974	
3656														-0.050977	0.001661	9.862891	-0.605745	0.795642	-0.005156	-0.795627	-0.605766	-0.005012	-0.007111	0.001066	0.999974	
3657														-0.078699	0.003266	9.803352	-0.605733	0.795651	-0.005178	-0.795636	-0.605754	-0.005014	-0.007126	0.001082	0.999974	
3658														-0.079818	-0.011290	9.803173	-0.605734	0.795650	-0.005202	-0.795635	-0.605756	-0.004994	-0.007125	0.001114	0.999974	
3659														-0.052795	0.015767	9.892337	-0.605729	0.795654	-0.005190	-0.795639	-0.605751	-0.005003	-0.007125	0.001099	0.999974	
3660														-0.079333	0.032168	9.818331	-0.605738	0.795647	-0.005181	-0.795632	-0.605759	-0.004991	-0.007110	0.001099	0.999974	
3661														-0.080765	0.002674	9.817979	-0.605745	0.795642	-0.005151	-0.795627	-0.605766	-0.004976	-0.007079	0.001084	0.999974	
3662														-0.066937	0.001762	9.833108	-0.605752	0.795637	-0.005163	-0.795622	-0.605773	-0.004966	-0.007079	0.001100	0.999974	
3663														-0.052076	0.015864	9.833774	-0.605752	0.795637	-0.005178	-0.795622	-0.605773	-0.004934	-0.007063	0.001131	0.999974	
3664														-0.081782	0.016941	9.832785	-0.605794	0.795604	-0.005164	-0.795590	-0.605815	-0.004964	-0.007078	0.001101	0.999974	
3665														-0.055150	-0.028714	9.847880	-0.605779	0.795616	-0.005124	-0.795602	-0.605800	-0.004938	-0.007032	0.001085	0.999975	
3666														-0.082386	0.016420	9.832781	-0.605787	0.795611	-0.005145	-0.795596	-0.605807	-0.004939	-0.007047	0.001101	0.999975	
3667														-0.054081	0.014967	9.848406	-0.605769	0.795624	-0.005135	-0.795610	-0.605790	-0.004927	-0.007031	0.001101	0.999975	
3668														-0.083208	0.016125	9.832774	-0.605755	0.795635	-0.005123	-0.795620	-0.605776	-0.004936	-0.007031	0.001086	0.999975	
3669														-0.083264	0.001434	9.803315	-0.605761	0.795630	-0.005100	-0.795615	-0.605782	-0.004955	-0.007031	0.001056	0.999975	
3670														-0.084800	0.000827	9.832588	-0.605769	0.795624	-0.005110	-0.795610	-0.605789	-0.004966	-0.007046	0.001057	0.999975	
3671														-0.055640	-0.000315	9.818940	-0.605764	0.795628	-0.005131	-0.795613	-0.605785	-0.004968	-0.007061	0.001073	0.999974	
3672														-0.070030	0.014789	9.818619	-0.605771	0.795623	-0.005101	-0.795608	-0.605792	-0.004953	-0.007031	0.001058	0.999975	
3673														-0.071096	-0.000216	9.818436	-0.605764	0.795628	-0.005095	-0.795613	-0.605785	-0.004995	-0.007061	0.001028	0.999975	
3674														-0.071949	0.013804	9.847891	-0.605757	0.795633	-0.005076	-0.795618	-0.605778	-0.004971	-0.007030	0.001028	0.999975	
3675														-0.057548	0.013034	9.848389	-0.605765	0.795628	-0.005067	-0.795613	-0.605785	-0.004958	-0.007015	0.001028	0.999975	
3676														-0.057088	-0.001271	9.804290	-0.605747	0.795641	-0.005076	-0.795627	-0.605767	-0.004970	-0.007029	0.001028	0.999975	
3677														-0.073149	0.013362	9.847882	-0.605756	0.795634	-0.005076	-0.795619	-0.605777	-0.004969	-0.007029	0.001029	0.999975	
3678														-0.087132	0.014155	9.818100	-0.605743	0.795645	-0.005067	-0.795630	-0.605763	-0.004957	-0.007013	0.001029	0.999975	
3679														-0.059379	-0.002034	9.833560	-0.605739	0.795648	-0.005067	-0.795633	-0.605759	-0.004956	-0.007013	0.001029	0.999975	
3680														-0.073328	0.013162	9.818597	-0.605721	0.795661	-0.005055	-0.795646	-0.605741	-0.004966	-0.007013	0.001014	0.999975	
3681														-0.059075	0.012389	9.819098	-0.605730	0.795655	-0.005058	-0.795640	-0.605750	-0.004943	-0.006997	0.001030	0.999975	
3682														-0.059883	0.012230	9.833735	-0.605735	0.795650	-0.005060	-0.795636	-0.605756	-0.004921	-0.006981	0.001045	0.999975	
3683														-0.074882	0.012783	9.833228	-0.605721	0.795661	-0.005060	-0.795647	-0.605741	-0.004921	-0.006981	0.001045	0.999975	
3684														-0.074708	0.027346	9.833407	-0.605731	0.795653	-0.005073	-0.795639	-0.605751	-0.004911	-0.006980	0.001061	0.999975	
3685														-0.075262	0.012876	9.818583	-0.605715	0.795666	-0.005085	-0.795651	-0.605735	-0.004901	-0.006979	0.001077	0.999975	
3686														-0.062185	0.011930	9.848363	-0.605709	0.795670	-0.005106	-0.795655	-0.605730	-0.004903	-0.006994	0.001093	0.999975	
3687														-0.061680	0.012106	9.819083	-0.605717	0.795664	-0.005095	-0.795649	-0.605738	-0.004912	-0.006994	0.001078	0.999975	
3688														-0.076831	0.012516	9.818571	-0.605692	0.795683	-0.005104	-0.795668	-0.605712	-0.004923	-0.007009	0.001079	0.999975	
3689														-0.064314	-0.003294	9.848170	-0.605696	0.795680	-0.005083	-0.795665	-0.605717	-0.004920	-0.006993	0.001064	0.999975	
3690														-0.061886	0.026235	9.804620	-0.605693	0.795682	-0.005083	-0.795667	-0.605714	-0.004920	-0.006993	0.001064	0.999975	
3691														-0.064702	-0.003576	9.833526	-0.605689	0.795685	-0.005081	-0.795671	-0.605709	-0.004941	-0.007008	0.001050	0.999975	
3692														-0.064414	0.025307	9.848530	-0.605688	0.795686	-0.005072	-0.795671	-0.605708	-0.004928	-0.006993	0.001050	0.999975	
3693														-0.063935	0.011013	9.804428	-0.605682	0.795690	-0.005081	-0.795676	-0.605703	-0.004939	-0.007008	0.001051	0.999975	
3694														-0.064793	0.025175	9.833887	-0.605680	0.795692	-0.005072	-0.795678	-0.605700	-0.004927	-0.006992	0.001051	0.999975	
3695														-0.080944	0.010869	9.847825	-0.605689	0.795685	-0.005072	-0.795671	-0.605709	-0.004926	-0.006992	0.001052	0.999975	
3696														-0.066284	-0.004225	9.818873	-0.605684	0.795689	-0.005063	-0.795674	-0.605705	-0.004914	-0.006977	0.001052	0.999975	
3697														-0.066547	0.010098	9.833695	-0.605679	0.795693	-0.005063	-0.795678	-0.605700	-0.004913	-0.006976	0.001052	0.999975	
3698														-0.066920	0.010023	9.833692	-0.605664	0.795704	-0.005065	-0.795690	-0.605684	-0.004891	-0.006960	0.001068	0.999975	
3699														-0.081918	0.010592	9.833174	-0.605684	0.795689	-0.005066	-0.795675	-0.605705	-0.004891	-0.006960	0.001069	0.999975	
3700														-0.067932	-0.004739	9.818862	-0.605669	0.795701	-0.005063	-0.795686	-0.605689	-0.004912	-0.006975	0.001054	0.999975	
3701														-0.067034	0.024304	9.819232	-0.605666	0.795703	-0.005045	-0.795689	-0.605686	-0.004887	-0.006944	0.001054	0.999975	
3702														-0.069096	0.009119	9.848320	-0.605661	0.795707	-0.005042	-0.795692	-0.605681	-0.004908	-0.006959	0.001040	0.999975	
3703														-0.069022	0.009061	9.833679	-0.605645	0.795719	-0.005033	-0.795705	-0.605665	-0.004896	-0.006944	0.001039	0.999975	
3704														-0.055222	0.008100	9.848833	-0.605641	0.795722	-0.005023	-0.795708	-0.605661	-0.004883	-0.006928	0.001040	0.999975	
3705														-0.054094	0.008373	9.804916	-0.605649	0.795716	-0.005021	-0.795702	-0.605669	-0.004904	-0.006943	0.001025	0.999975	
3706														-0.085077	0.008971	9.833149	-0.605645	0.795719	-0.005017	-0.795704	-0.605665	-0.004946	-0.006974	0.000996	0.999975	
3707														-0.056352	0.007529	9.834186	-0.605628	0.795732	-0.005031	-0.795718	-0.605648	-0.004915	-0.006958	0.001026	0.999975	
3708														-0.056235	-0.006849	9.804720	-0.605623	0.795736	-0.005009	-0.795721	-0.605643	-0.004912	-0.006942	0.001011	0.999975	
3709														-0.056833	0.021845	9.849010	-0.605631	0.795729	-0.005024	-0.795715	-0.605651	-0.004880	-0.006926	0.001042	0.999975	
3710														-0.086569	0.008681	9.833136	-0.605627	0.795732	-0.005024	-0.795718	-0.605647	-0.004880	-0.006926	0.001042	0.999975	
3711														-0.071481	0.008296	9.804378	-0.605647	0.795718	-0.005056	-0.795703	-0.605667	-0.004893	-0.006956	0.001059	0.999975	
3712														-0.073217	0.007899	9.833649	-0.605642	0.795721	-0.005065	-0.795707	-0.605662	-0.004905	-0.006970	0.001060	0.999975	
3713														-0.043162	0.021241	9.820248	-0.605612	0.795744	-0.005045	-0.795730	-0.605632	-0.004880	-0.006939	0.001059	0.999975	
3714														-0.058847	-0.007357	9.804704	-0.605609	0.795747	-0.005046	-0.795732	-0.605629	-0.004880	-0.006939	0.001060	0.999975	
3715														-0.088962	0.008183	9.833115	-0.605616	0.795741	-0.005058	-0.795726	-0.605637	-0.004870	-0.006938	0.001076	0.999975	
3716														-0.060086	0.006799	9.834165	-0.605613	0.795743	-0.005049	-0.795729	-0.605633	-0.004857	-0.006923	0.001076	0.999975	
3717														-0.074549	0.007549	9.818998	-0.605621	0.795737	-0.005061	-0.795723	-0.605641	-0.004847	-0.006922	0.001092	0.999975	
3718														-0.076793	-0.007411	9.848079	-0.605617	0.795740	-0.005083	-0.795726	-0.605637	-0.004849	-0.006937	0.001108	0.999975	
3719														-0.076743	0.007081	9.848265	-0.605638	0.795724	-0.005081	-0.795710	-0.605658	-0.004869	-0.006952	0.001094	0.999975	
3720														-0.061455	0.021077	9.834343	-0.605621	0.795737	-0.005093	-0.795723	-0.605641	-0.004859	-0.006951	0.001110	0.999975	
3721														-0.076791	0.007202	9.818981	-0.605616	0.795740	-0.005112	-0.795726	-0.605637	-0.004883	-0.006982	0.001111	0.999975	
3722														-0.077201	0.021449	9.833806	-0.605624	0.795735	-0.005091	-0.795720	-0.605645	-0.004880	-0.006966	0.001096	0.999975	
3723														-0.077075	0.007076	9.804337	-0.605607	0.795747	-0.005105	-0.795733	-0.605628	-0.004848	-0.006950	0.001126	0.999975	
3724														-0.064516	0.005914	9.848778	-0.605603	0.795750	-0.005115	-0.795736	-0.605624	-0.004860	-0.006965	0.001127	0.999975	
3725														-0.077926	0.021400	9.819159	-0.605599	0.795753	-0.005115	-0.795739	-0.605620	-0.004859	-0.006964	0.001128	0.999975	
3726														-0.079574	0.006454	9.833601	-0.605594	0.795757	-0.005115	-0.795743	-0.605614	-0.004858	-0.006964	0.001128	0.999975	
3727														-0.064199	0.020366	9.819686	-0.605565	0.795779	-0.005102	-0.795765	-0.605586	-0.004868	-0.006963	0.001113	0.999975	
3728														-0.078579	0.021052	9.804513	-0.605598	0.795754	-0.005096	-0.795741	-0.605618	-0.004833	-0.006933	0.001128	0.999975	
3729														-0.051454	0.004604	9.834662	-0.605605	0.795749	-0.005094	-0.795735	-0.605626	-0.004854	-0.006948	0.001114	0.999975	
3730														-0.081154	0.005642	9.833588	-0.605589	0.795762	-0.005073	-0.795748	-0.605609	-0.004851	-0.006933	0.001099	0.999975	
3731														-0.065622	0.019699	9.819678	-0.605584	0.795765	-0.005087	-0.795752	-0.605604	-0.004820	-0.006916	0.001129	0.999975	
3732														-0.066461	0.019606	9.834314	-0.605603	0.795751	-0.005090	-0.795737	-0.605623	-0.004798	-0.006900	0.001145	0.999976	
3733														-0.083376	-0.023767	9.833194	-0.605624	0.795735	-0.005070	-0.795721	-0.605644	-0.004794	-0.006885	0.001130	0.999976	
3734														-0.082468	-0.009112	9.818747	-0.605631	0.795729	-0.005072	-0.795716	-0.605651	-0.004772	-0.006870	0.001146	0.999976	
3735														-0.037597	0.032604	9.835577	-0.605613	0.795743	-0.005093	-0.795729	-0.605634	-0.004774	-0.006884	0.001162	0.999976	
3736														-0.056339	0.029750	9.834854	-0.605615	0.795742	-0.005090	-0.795728	-0.605635	-0.004757	-0.006868	0.001169	0.999976	
3737														-0.075081	0.026896	9.834131	-0.605616	0.795741	-0.005087	-0.795727	-0.605636	-0.004740	-0.006852	0.001177	0.999976	
3738														-0.069142	0.004458	9.834106	-0.605587	0.795763	-0.005067	-0.795750	-0.605607	-0.004716	-0.006821	0.001176	0.999976	
3739														-0.083398	0.019540	9.833759	-0.605607	0.795748	-0.005055	-0.795734	-0.605627	-0.004724	-0.006821	0.001162	0.999976	
3740														-0.070018	-0.010523	9.819269	-0.605615	0.795742	-0.005044	-0.795729	-0.605635	-0.004733	-0.006821	0.001147	0.999976	
3741														-0.084424	0.004566	9.818920	-0.605623	0.795736	-0.005044	-0.795722	-0.605643	-0.004732	-0.006821	0.001148	0.999976	
3742														-0.071504	0.003332	9.848731	-0.605631	0.795730	-0.005051	-0.795716	-0.605651	-0.004765	-0.006851	0.001134	0.999976	
3743														-0.071358	0.017818	9.848923	-0.605615	0.795742	-0.005054	-0.795729	-0.605635	-0.004743	-0.006835	0.001149	0.999976	
3744														-0.071327	0.017995	9.834283	-0.605622	0.795736	-0.005085	-0.795723	-0.605642	-0.004757	-0.006865	0.001166	0.999976	
3745														-0.072599	0.003297	9.834082	-0.605642	0.795721	-0.005086	-0.795707	-0.605663	-0.004756	-0.006865	0.001167	0.999976	
3746														-0.072015	0.003571	9.804804	-0.605626	0.795733	-0.005107	-0.795720	-0.605646	-0.004758	-0.006879	0.001182	0.999976	
3747														-0.073601	0.017620	9.848907	-0.605621	0.795737	-0.005117	-0.795724	-0.605641	-0.004769	-0.006894	0.001183	0.999976	
3748														-0.074725	0.002918	9.848707	-0.605641	0.795722	-0.005120	-0.795708	-0.605661	-0.004747	-0.006878	0.001199	0.999976	
3749														-0.060447	-0.012220	9.834419	-0.605697	0.795679	-0.005114	-0.795666	-0.605717	-0.004713	-0.006848	0.001215	0.999976	
3750														-0.059591	0.002592	9.819977	-0.605728	0.795655	-0.005137	-0.795642	-0.605749	-0.004714	-0.006862	0.001231	0.999976	
3751														-0.058764	0.031712	9.820368	-0.605725	0.795658	-0.005125	-0.795644	-0.605746	-0.004723	-0.006862	0.001216	0.999976	
3752														-0.045309	0.016282	9.806078	-0.605683	0.795689	-0.005188	-0.795676	-0.605704	-0.004828	-0.006984	0.001204	0.999975	
3753														-0.063803	0.015436	9.849426	-0.605642	0.795720	-0.005199	-0.795704	-0.605664	-0.005111	-0.007216	0.001041	0.999973	
3754														0.065642	0.021455	9.825365	-0.605578	0.795769	-0.005195	-0.795748	-0.605600	-0.005719	-0.007697	0.000670	0.999970	
3755														-0.081120	0.070579	9.805738	-0.605354	0.795939	-0.005261	-0.795919	-0.605376	-0.005761	-0.007770	0.000700	0.999970	
3756														0.227293	0.437094	9.851658	-0.604399	0.796663	-0.005361	-0.796643	-0.604423	-0.005728	-0.007804	0.000809	0.999969	
3757														0.005211	0.389738	9.842333	-0.603092	0.797654	-0.005402	-0.797634	-0.603115	-0.005682	-0.007790	0.000882	0.999969	
3758														-0.219356	0.005274	9.843506	-0.602028	0.798457	-0.005365	-0.798437	-0.602052	-0.005602	-0.007703	0.000911	0.999970	
3759														-0.260271	-0.240586	9.809637	-0.601364	0.798956	-0.005482	-0.798938	-0.601388	-0.005502	-0.007693	0.001070	0.999970	
3760														-0.348540	-0.206443	9.850562	-0.601397	0.798932	-0.005476	-0.798914	-0.601421	-0.005468	-0.007662	0.001087	0.999970	
3761														-0.064076	-0.411454	9.815348	-0.601821	0.798613	-0.005433	-0.798596	-0.601844	-0.005370	-0.007559	0.001107	0.999971	
3762														-0.043337	-0.002249	9.835662	-0.601915	0.798542	-0.005413	-0.798525	-0.601938	-0.005388	-0.007561	0.001079	0.999971	
3763														-0.101359	0.015215	9.833598	-0.601947	0.798518	-0.005407	-0.798501	-0.601970	-0.005353	-0.007530	0.001095	0.999971	
3764														-0.129521	0.017092	9.803192	-0.602089	0.798411	-0.005394	-0.798394	-0.602112	-0.005306	-0.007484	0.001112	0.999971	
3765														-0.188344	0.034344	9.830402	-0.602500	0.798101	-0.005366	-0.798085	-0.602522	-0.005254	-0.007427	0.001117	0.999972	
3766														-0.116053	0.015671	9.833031	-0.603056	0.797681	-0.005337	-0.797664	-0.603079	-0.005244	-0.007402	0.001095	0.999972	
3767														-0.058171	-0.002046	9.820455	-0.603758	0.797150	-0.005352	-0.797133	-0.603780	-0.005259	-0.007423	0.001091	0.999972	
3768														-0.074895	-0.016525	9.834313	-0.604386	0.796674	-0.005348	-0.796657	-0.604409	-0.005326	-0.007476	0.001042	0.999972	
3769														-0.192441	0.003164	9.844593	-0.604941	0.796252	-0.005338	-0.796235	-0.604964	-0.005340	-0.007481	0.001020	0.999971	
3770														-0.307837	0.023420	9.810963	-0.605848	0.795562	-0.005320	-0.795545	-0.605871	-0.005305	-0.007444	0.001019	0.999972	
3771														-0.248271	0.049491	9.813648	-0.607240	0.794501	-0.005333	-0.794484	-0.607262	-0.005290	-0.007441	0.001025	0.999972	
3772														-0.175238	0.074485	9.846181	-0.608969	0.793176	-0.005280	-0.793159	-0.608991	-0.005252	-0.007382	0.000990	0.999972	
3773														-0.116596	0.057167	9.818982	-0.610936	0.791662	-0.005305	-0.791645	-0.610959	-0.005253	-0.007400	0.000990	0.999972	
3774														-0.235747	0.046646	9.828827	-0.613104	0.789984	-0.005340	-0.789967	-0.613127	-0.005307	-0.007467	0.000964	0.999972	
3775														-0.238786	0.001467	9.842826	-0.615474	0.788140	-0.005297	-0.788122	-0.615496	-0.005329	-0.007460	0.000895	0.999972	
3776														-0.250483	0.045487	9.798961	-0.618017	0.786147	-0.005307	-0.786130	-0.618039	-0.005289	-0.007438	0.000903	0.999972	
3777														-0.204452	0.131565	9.801912	-0.620851	0.783910	-0.005380	-0.783893	-0.620873	-0.005242	-0.007450	0.000963	0.999972	
3778														-0.264067	0.205521	9.844526	-0.624142	0.781292	-0.005458	-0.781275	-0.624165	-0.005254	-0.007512	0.000985	0.999971	
3779														0.010090	0.066968	9.838960	-0.627743	0.778401	-0.005508	-0.778384	-0.627767	-0.005195	-0.007502	0.001026	0.999971	
3780														0.059923	0.015363	9.829291	-0.630864	0.775863	-0.005612	-0.775846	-0.630888	-0.005243	-0.007609	0.001046	0.999971	
3781														0.109755	-0.036241	9.819622	-0.633984	0.773325	-0.005716	-0.773308	-0.634009	-0.005292	-0.007716	0.001065	0.999970	
3782														0.062739	-0.137440	9.838426	-0.637231	0.770651	-0.005726	-0.770634	-0.637256	-0.005222	-0.007673	0.001085	0.999970	
3783														-0.037421	0.112770	9.808551	-0.641299	0.767270	-0.005773	-0.767252	-0.641324	-0.005329	-0.007791	0.001012	0.999969	
3784														-0.201771	0.111747	9.831394	-0.644999	0.764162	-0.005822	-0.764143	-0.645024	-0.005451	-0.007921	0.000933	0.999968	
3785														-0.280005	0.099387	9.831800	-0.649080	0.760679	-0.005891	-0.760660	-0.649106	-0.005461	-0.007978	0.000936	0.999968	
3786														-0.358240	0.087026	9.832205	-0.653161	0.757196	-0.005960	-0.757176	-0.653188	-0.005472	-0.008036	0.000938	0.999967	
3787														-0.115331	-0.050030	9.817987	-0.657455	0.753469	-0.006047	-0.753451	-0.657482	-0.005330	-0.007992	0.001052	0.999968	
3788														-0.115927	-0.064969	9.847059	-0.661250	0.750142	-0.006039	-0.750124	-0.661276	-0.005284	-0.007957	0.001036	0.999968	
3789														-0.236452	0.107523	9.815498	-0.665255	0.746592	-0.006053	-0.746574	-0.665282	-0.005301	-0.007985	0.000993	0.999968	
3790														-0.224157	0.135903	9.816473	-0.669399	0.742878	-0.006104	-0.742859	-0.669426	-0.005330	-0.008046	0.000966	0.999967	
3791														-0.257219	0.162808	9.844939	-0.673737	0.738946	-0.006187	-0.738928	-0.673764	-0.005273	-0.008065	0.001020	0.999967	
3792														-0.252367	0.015496	9.828262	-0.678141	0.734905	-0.006264	-0.734886	-0.678169	-0.005365	-0.008191	0.000965	0.999966	
3793														-0.031001	-0.062959	9.850582	-0.682632	0.730734	-0.006425	-0.730715	-0.682661	-0.005363	-0.008305	0.001034	0.999965	
3794														-0.081536	-0.211865	9.831566	-0.687089	0.726545	-0.006456	-0.726526	-0.687118	-0.005375	-0.008341	0.000997	0.999965	
3795														-0.150073	-0.025701	9.802486	-0.691763	0.722096	-0.006469	-0.722076	-0.691793	-0.005448	-0.008409	0.000902	0.999964	
3796														0.076371	0.046211	9.886034	-0.696606	0.717424	-0.006462	-0.717405	-0.696636	-0.005378	-0.008360	0.000890	0.999965	
3797														-0.217619	0.069629	9.816100	-0.701636	0.712506	-0.006517	-0.712485	-0.701665	-0.005502	-0.008493	0.000783	0.999964	
3798														0.016199	0.057020	9.839941	-0.706319	0.707864	-0.006461	-0.707843	-0.706349	-0.005518	-0.008470	0.000676	0.999964	
3799														-0.220623	0.065831	9.830706	-0.710443	0.703724	-0.006553	-0.703703	-0.710473	-0.005514	-0.008537	0.000694	0.999963	
3800														-0.109159	-0.042895	9.847944	-0.715081	0.699012	-0.006499	-0.698990	-0.715110	-0.005509	-0.008499	0.000603	0.999964	
3801														-0.248471	0.045625	9.785371	-0.719878	0.694070	-0.006501	-0.694048	-0.719907	-0.005602	-0.008568	0.000479	0.999963	
3802														-0.157546	0.111041	9.878206	-0.725083	0.688630	-0.006519	-0.688608	-0.725112	-0.005603	-0.008586	0.000426	0.999963	
3803														-0.133200	0.024898	9.848320	-0.730624	0.682749	-0.006571	-0.682726	-0.730653	-0.005580	-0.008611	0.000410	0.999963	
3804														-0.174684	0.020179	9.773317	-0.736263	0.676663	-0.006617	-0.676640	-0.736293	-0.005544	-0.008624	0.000396	0.999963	
3805														0.021941	0.074313	9.826121	-0.741842	0.670541	-0.006717	-0.670519	-0.741872	-0.005520	-0.008684	0.000409	0.999962	
3806														0.058538	0.109355	9.857618	-0.747108	0.664668	-0.006775	-0.664645	-0.747138	-0.005553	-0.008753	0.000355	0.999962	
3807														0.062107	-0.006884	9.782248	-0.752056	0.659063	-0.006847	-0.659040	-0.752087	-0.005611	-0.008848	0.000293	0.999961	
3808														0.169816	-0.049598	9.829649	-0.756665	0.653767	-0.006846	-0.653743	-0.756696	-0.005607	-0.008846	0.000233	0.999961	
3809														0.094440	-0.046174	9.841423	-0.760790	0.648962	-0.006863	-0.648937	-0.760821	-0.005621	-0.008870	0.000177	0.999961	
3810														0.209184	0.062808	9.848160	-0.764392	0.644715	-0.006908	-0.644690	-0.764423	-0.005641	-0.008918	0.000141	0.999960	
3811														0.177808	-0.015924	9.830700	-0.767589	0.640905	-0.006898	-0.640880	-0.767620	-0.005732	-0.008969	0.000021	0.999960	
3812														-0.093615	0.011213	9.776694	-0.770493	0.637411	-0.006955	-0.637385	-0.770524	-0.005750	-0.009024	0.000003	0.999959	
3813														-0.023190	-0.066124	9.836501	-0.773168	0.634162	-0.006983	-0.634137	-0.773200	-0.005706	-0.009018	0.000017	0.999959	
3814														-0.200977	-0.069261	9.814829	-0.775888	0.630831	-0.007024	-0.630805	-0.775920	-0.005715	-0.009055	-0.000004	0.999959	
3815														0.000020	0.042088	9.839757	-0.778405	0.627724	-0.006920	-0.627698	-0.778436	-0.005804	-0.009030	-0.000175	0.999959	
3816														-0.128746	0.091623	9.806520	-0.780838	0.624694	-0.007028	-0.624667	-0.780870	-0.005806	-0.009115	-0.000143	0.999958	
3817														0.045999	0.095731	9.857489	-0.783320	0.621579	-0.007042	-0.621552	-0.783351	-0.005883	-0.009173	-0.000231	0.999958	
3818														-0.282408	0.013778	9.842915	-0.785874	0.618346	-0.007081	-0.618318	-0.785906	-0.005959	-0.009250	-0.000304	0.999957	
3819														-0.207846	-0.120731	9.784232	-0.788463	0.615041	-0.007055	-0.615013	-0.788495	-0.005906	-0.009195	-0.000317	0.999958	
3820														0.004202	-0.077948	9.866792	-0.791077	0.611676	-0.007044	-0.611647	-0.791108	-0.005971	-0.009225	-0.000415	0.999957	
3821														0.067566	-0.018855	9.826635	-0.793395	0.608665	-0.007097	-0.608636	-0.793427	-0.005985	-0.009274	-0.000428	0.999957	
3822														0.199720	-0.003921	9.802837	-0.795387	0.606060	-0.007129	-0.606031	-0.795418	-0.005992	-0.009302	-0.000446	0.999957	
3823														0.115760	-0.037454	9.813502	-0.796916	0.604048	-0.007147	-0.604018	-0.796948	-0.006071	-0.009363	-0.000521	0.999956	
3824														0.003251	-0.078241	9.837518	-0.798265	0.602264	-0.007112	-0.602234	-0.798297	-0.006024	-0.009305	-0.000526	0.999957	
3825														-0.045364	0.000529	9.837464	-0.799444	0.600698	-0.007151	-0.600667	-0.799476	-0.006139	-0.009405	-0.000613	0.999956	
3826														-0.027031	0.049976	9.824701	-0.800527	0.599253	-0.007182	-0.599223	-0.800559	-0.006083	-0.009395	-0.000566	0.999956	
3827														-0.183716	0.014202	9.803086	-0.801581	0.597843	-0.007180	-0.597813	-0.801613	-0.006060	-0.009379	-0.000565	0.999956	
3828														-0.103442	-0.012529	9.820282	-0.802715	0.596320	-0.007203	-0.596290	-0.802747	-0.006036	-0.009382	-0.000550	0.999956	
3829														0.139351	-0.151177	9.826558	-0.803773	0.594893	-0.007182	-0.594862	-0.803805	-0.006036	-0.009363	-0.000579	0.999956	
3830														0.064499	-0.093927	9.839657	-0.804518	0.593884	-0.007204	-0.593853	-0.804550	-0.006092	-0.009414	-0.000623	0.999955	
3831														-0.001842	-0.003580	9.809893	-0.805133	0.593049	-0.007306	-0.593018	-0.805166	-0.006083	-0.009491	-0.000565	0.999955	
3832														-0.123936	0.057402	9.835889	-0.805649	0.592348	-0.007288	-0.592317	-0.805682	-0.006112	-0.009492	-0.000607	0.999955	
3833														-0.205775	0.022299	9.817211	-0.806383	0.591349	-0.007245	-0.591317	-0.806415	-0.006149	-0.009478	-0.000674	0.999955	
3834														-0.131608	-0.035618	9.804121	-0.807224	0.590201	-0.007249	-0.590169	-0.807256	-0.006183	-0.009501	-0.000713	0.999955	
3835														-0.179018	-0.032828	9.817018	-0.808281	0.588752	-0.007251	-0.588720	-0.808313	-0.006247	-0.009539	-0.000780	0.999954	
3836														-0.069758	0.008424	9.836990	-0.809335	0.587303	-0.007249	-0.587271	-0.809367	-0.006181	-0.009497	-0.000745	0.999955	
3837														-0.074338	-0.038721	9.850366	-0.810379	0.585862	-0.007188	-0.585829	-0.810410	-0.006290	-0.009511	-0.000886	0.999954	
3838														-0.044500	-0.030951	9.807753	-0.811400	0.584446	-0.007226	-0.584414	-0.811432	-0.006180	-0.009476	-0.000791	0.999955	
3839														-0.120817	-0.035404	9.833992	-0.812340	0.583140	-0.007228	-0.583106	-0.812371	-0.006310	-0.009551	-0.000912	0.999954	
3840														-0.110094	-0.017979	9.805562	-0.813214	0.581919	-0.007246	-0.581885	-0.813246	-0.006376	-0.009603	-0.000969	0.999953	
3841														-0.179424	0.009133	9.832840	-0.814122	0.580648	-0.007251	-0.580614	-0.814154	-0.006344	-0.009587	-0.000955	0.999954	
3842														-0.083561	0.048595	9.822948	-0.814896	0.579562	-0.007231	-0.579528	-0.814927	-0.006359	-0.009578	-0.000991	0.999954	
3843														-0.056048	0.055409	9.824244	-0.815800	0.578288	-0.007283	-0.578254	-0.815832	-0.006412	-0.009649	-0.001019	0.999953	
3844														-0.001279	0.009095	9.854639	-0.816745	0.576951	-0.007397	-0.576917	-0.816778	-0.006375	-0.009720	-0.000939	0.999952	
3845														-0.037825	-0.074787	9.792481	-0.817744	0.575535	-0.007363	-0.575500	-0.817777	-0.006365	-0.009685	-0.000967	0.999953	
3846														-0.139100	-0.041272	9.818638	-0.818669	0.574218	-0.007393	-0.574183	-0.818702	-0.006375	-0.009713	-0.000974	0.999952	
3847														-0.260362	-0.042785	9.813803	-0.819759	0.572660	-0.007436	-0.572626	-0.819792	-0.006328	-0.009720	-0.000929	0.999952	
3848														-0.236788	-0.021721	9.829937	-0.820996	0.570885	-0.007444	-0.570851	-0.821030	-0.006302	-0.009709	-0.000925	0.999952	
3849														-0.145757	0.032578	9.834918	-0.822397	0.568866	-0.007447	-0.568832	-0.822430	-0.006285	-0.009700	-0.000932	0.999953	
3850														-0.186922	0.021260	9.789049	-0.823741	0.566918	-0.007389	-0.566883	-0.823773	-0.006380	-0.009704	-0.001066	0.999952	
3851														-0.125898	0.005812	9.849786	-0.825001	0.565083	-0.007445	-0.565048	-0.825033	-0.006416	-0.009768	-0.001087	0.999952	
3852														-0.157252	0.012964	9.804763	-0.826317	0.563156	-0.007490	-0.563120	-0.826350	-0.006419	-0.009804	-0.001087	0.999951	
3853														-0.172448	0.053197	9.878525	-0.827751	0.561046	-0.007483	-0.561011	-0.827784	-0.006370	-0.009768	-0.001074	0.999952	
3854														-0.243975	0.049065	9.787627	-0.829369	0.558651	-0.007479	-0.558615	-0.829402	-0.006436	-0.009799	-0.001160	0.999951	
3855														-0.081606	0.002631	9.822265	-0.831082	0.556098	-0.007576	-0.556061	-0.831116	-0.006485	-0.009903	-0.001177	0.999950	
3856														-0.028076	-0.027894	9.823639	-0.832764	0.553576	-0.007539	-0.553540	-0.832797	-0.006477	-0.009864	-0.001220	0.999951	
3857														-0.189831	0.001484	9.832649	-0.834488	0.550974	-0.007597	-0.550938	-0.834522	-0.006386	-0.009858	-0.001144	0.999951	
3858														-0.035698	0.001848	9.794779	-0.836221	0.548339	-0.007635	-0.548304	-0.836255	-0.006319	-0.009849	-0.001098	0.999951	
3859														-0.088077	0.016647	9.822447	-0.837939	0.545711	-0.007680	-0.545674	-0.837973	-0.006380	-0.009918	-0.001156	0.999950	
3860														0.093414	-0.036637	9.857627	-0.839547	0.543232	-0.007709	-0.543195	-0.839582	-0.006412	-0.009956	-0.001196	0.999950	
3861														-0.140391	-0.014231	9.790299	-0.841074	0.540865	-0.007749	-0.540829	-0.841109	-0.006336	-0.009945	-0.001138	0.999950	
3862														0.105358	-0.077742	9.857039	-0.842462	0.538700	-0.007758	-0.538664	-0.842497	-0.006361	-0.009963	-0.001180	0.999950	
3863														-0.036554	-0.059324	9.807929	-0.843736	0.536702	-0.007793	-0.536666	-0.843771	-0.006354	-0.009986	-0.001179	0.999949	
3864														0.003487	-0.047495	9.839198	-0.844808	0.535013	-0.007804	-0.534975	-0.844843	-0.006438	-0.010038	-0.001264	0.999949	
3865														-0.241509	-0.002479	9.830729	-0.845747	0.533528	-0.007692	-0.533490	-0.845781	-0.006544	-0.009997	-0.001431	0.999949	
3866														-0.246222	0.056134	9.846832	-0.846870	0.531743	-0.007733	-0.531705	-0.846904	-0.006549	-0.010031	-0.001435	0.999949	
3867														-0.092715	-0.032644	9.777225	-0.848112	0.529759	-0.007769	-0.529721	-0.848147	-0.006564	-0.010066	-0.001451	0.999948	
3868														-0.076142	-0.043219	9.806954	-0.849342	0.527785	-0.007793	-0.527746	-0.849377	-0.006569	-0.010086	-0.001466	0.999948	
3869														-0.095826	-0.034349	9.821105	-0.850640	0.525690	-0.007842	-0.525651	-0.850675	-0.006570	-0.010125	-0.001467	0.999948	
3870														0.051330	-0.017848	9.842096	-0.851830	0.523761	-0.007802	-0.523721	-0.851864	-0.006602	-0.010104	-0.001538	0.999948	
3871														-0.040946	-0.017173	9.823804	-0.852982	0.521882	-0.007800	-0.521843	-0.853016	-0.006589	-0.010092	-0.001550	0.999948	
3872														-0.073307	-0.012207	9.808015	-0.854122	0.520014	-0.007833	-0.519974	-0.854156	-0.006605	-0.010125	-0.001568	0.999948	
3873														-0.032817	0.001137	9.824680	-0.855274	0.518117	-0.007851	-0.518078	-0.855308	-0.006568	-0.010118	-0.001550	0.999948	
3874														-0.139799	-0.003742	9.820320	-0.856518	0.516057	-0.007857	-0.516018	-0.856553	-0.006595	-0.010133	-0.001594	0.999947	
3875														-0.171802	-0.045843	9.817881	-0.857894	0.513768	-0.007759	-0.513730	-0.857928	-0.006466	-0.009979	-0.001561	0.999949	
3876														-0.009597	-0.068239	9.823674	-0.859364	0.511304	-0.007830	-0.511265	-0.859399	-0.006496	-0.010051	-0.001579	0.999948	
3877														-0.081205	-0.000121	9.837462	-0.860774	0.508927	-0.007858	-0.508887	-0.860808	-0.006551	-0.010098	-0.001640	0.999948	
3878														-0.152900	0.067723	9.851242	-0.862185	0.506533	-0.007891	-0.506493	-0.862219	-0.006530	-0.010111	-0.001634	0.999948	
3879														-0.322597	0.024171	9.799337	-0.863754	0.503852	-0.007893	-0.503812	-0.863788	-0.006574	-0.010130	-0.001702	0.999947	
3880														-0.171013	0.030269	9.805555	-0.865383	0.501047	-0.007973	-0.501007	-0.865418	-0.006600	-0.010207	-0.001717	0.999946	
3881														-0.291881	-0.029345	9.828435	-0.866914	0.498395	-0.007905	-0.498355	-0.866948	-0.006586	-0.010135	-0.001770	0.999947	
3882														-0.105410	0.051677	9.867501	-0.868689	0.495294	-0.007897	-0.495253	-0.868723	-0.006627	-0.010142	-0.001846	0.999947	
3883														-0.197070	0.050224	9.805236	-0.870429	0.492229	-0.008040	-0.492187	-0.870464	-0.006677	-0.010285	-0.001855	0.999945	
3884														-0.037434	-0.047092	9.794101	-0.872297	0.488911	-0.008059	-0.488869	-0.872332	-0.006714	-0.010313	-0.001917	0.999945	
3885														-0.093542	0.056475	9.824269	-0.874183	0.485531	-0.008038	-0.485489	-0.874218	-0.006658	-0.010260	-0.001918	0.999946	
3886														-0.105497	0.082915	9.853926	-0.876018	0.482210	-0.008061	-0.482169	-0.876053	-0.006619	-0.010253	-0.001912	0.999946	
3887														-0.324105	0.000200	9.813584	-0.878012	0.478569	-0.008136	-0.478527	-0.878048	-0.006594	-0.010299	-0.001897	0.999945	
3888														-0.221718	-0.023717	9.816926	-0.880464	0.474043	-0.008165	-0.474002	-0.880500	-0.006523	-0.010281	-0.001873	0.999945	
3889														-0.362258	-0.033194	9.855169	-0.883273	0.468788	-0.008161	-0.468747	-0.883309	-0.006481	-0.010247	-0.001899	0.999946	
3890														-0.371641	-0.085504	9.809284	-0.886304	0.463032	-0.008215	-0.462991	-0.886340	-0.006451	-0.010269	-0.001914	0.999945	
3891														-0.112611	-0.140597	9.817719	-0.889457	0.456946	-0.008127	-0.456905	-0.889492	-0.006435	-0.010169	-0.002011	0.999946	
3892														-0.140238	0.036272	9.851411	-0.892500	0.450974	-0.008155	-0.450932	-0.892534	-0.006516	-0.010218	-0.002138	0.999946	
3893														0.073817	0.094506	9.832179	-0.895491	0.445006	-0.008083	-0.444964	-0.895525	-0.006480	-0.010122	-0.002206	0.999946	
3894														-0.100490	0.051773	9.853494	-0.898279	0.439351	-0.008076	-0.439310	-0.898313	-0.006352	-0.010046	-0.002158	0.999947	
3895														-0.300474	0.108174	9.818352	-0.901169	0.433393	-0.008089	-0.433352	-0.901202	-0.006404	-0.010066	-0.002266	0.999947	
3896														-0.263725	0.059591	9.803617	-0.904086	0.427272	-0.008121	-0.427232	-0.904120	-0.006236	-0.010007	-0.002168	0.999948	
3897														-0.255962	-0.034469	9.830304	-0.907057	0.420929	-0.008192	-0.420888	-0.907091	-0.006245	-0.010060	-0.002217	0.999947	
3898														-0.040407	-0.016458	9.853697	-0.909913	0.414717	-0.008245	-0.414677	-0.909948	-0.006150	-0.010053	-0.002177	0.999947	
3899														-0.212370	0.146894	9.793861	-0.912850	0.408209	-0.008350	-0.408169	-0.912886	-0.006143	-0.010131	-0.002200	0.999946	
3900														-0.132683	0.070126	9.853119	-0.915775	0.401603	-0.008388	-0.401562	-0.915811	-0.006179	-0.010163	-0.002290	0.999946	
3901														-0.162952	0.022426	9.843142	-0.918769	0.394633	-0.008426	-0.394592	-0.918805	-0.006130	-0.010161	-0.002307	0.999946	
3902														-0.193220	-0.025275	9.833164	-0.921763	0.387662	-0.008465	-0.387621	-0.921799	-0.006080	-0.010160	-0.002324	0.999946	
3903														-0.090333	0.009261	9.852842	-0.924761	0.380453	-0.008569	-0.380411	-0.924797	-0.006091	-0.010242	-0.002374	0.999945	
3904														-0.061506	-0.040613	9.778934	-0.927777	0.373038	-0.008574	-0.372997	-0.927813	-0.006007	-0.010196	-0.002376	0.999945	
3905														-0.075939	-0.082412	9.835676	-0.930678	0.365738	-0.008602	-0.365697	-0.930715	-0.006020	-0.010208	-0.002457	0.999945	
3906														-0.061770	-0.108099	9.820669	-0.933597	0.358218	-0.008692	-0.358177	-0.933635	-0.005977	-0.010256	-0.002467	0.999944	
3907														-0.200452	-0.067440	9.802394	-0.936598	0.350297	-0.008713	-0.350256	-0.936635	-0.005987	-0.010258	-0.002555	0.999944	
3908														-0.272993	0.058073	9.818846	-0.939717	0.341839	-0.008786	-0.341797	-0.939755	-0.005963	-0.010295	-0.002600	0.999944	
3909														-0.154177	-0.128835	9.860671	-0.943026	0.332599	-0.008898	-0.332557	-0.943065	-0.005926	-0.010362	-0.002630	0.999943	
3910														-0.140243	-0.205809	9.799815	-0.946310	0.323134	-0.008985	-0.323092	-0.946349	-0.005904	-0.010411	-0.002684	0.999942	
3911														-0.344550	-0.175677	9.764345	-0.949488	0.313670	-0.009131	-0.313627	-0.949528	-0.005904	-0.010522	-0.002742	0.999941	
3912														-0.262883	-0.095432	9.858132	-0.952624	0.304010	-0.009230	-0.303967	-0.952665	-0.005813	-0.010560	-0.002732	0.999941	
3913														-0.231362	-0.008122	9.833109	-0.955643	0.294380	-0.009320	-0.294336	-0.955684	-0.005846	-0.010628	-0.002843	0.999939	
3914														-0.105223	0.088579	9.855741	-0.958519	0.284874	-0.009359	-0.284830	-0.958561	-0.005758	-0.010612	-0.002854	0.999940	
3915														-0.325844	0.154808	9.850663	-0.961322	0.275264	-0.009455	-0.275220	-0.961364	-0.005725	-0.010666	-0.002901	0.999939	
3916														-0.322811	0.067913	9.803722	-0.964287	0.264689	-0.009533	-0.264644	-0.964329	-0.005745	-0.010714	-0.003017	0.999938	
3917														-0.073173	-0.048061	9.866636	-0.967233	0.253707	-0.009590	-0.253662	-0.967276	-0.005723	-0.010728	-0.003103	0.999938	
3918														-0.071120	-0.037733	9.845130	-0.969996	0.242663	-0.009653	-0.242617	-0.970038	-0.005751	-0.010760	-0.003237	0.999937	
3919														-0.069067	-0.027404	9.823623	-0.972758	0.231619	-0.009717	-0.231572	-0.972801	-0.005779	-0.010791	-0.003372	0.999936	
3920														-0.145662	-0.047932	9.791080	-0.975264	0.220828	-0.009791	-0.220779	-0.975306	-0.005848	-0.010840	-0.003541	0.999935	
3921														0.059022	0.159857	9.849924	-0.977531	0.210559	-0.009912	-0.210509	-0.977574	-0.005852	-0.010922	-0.003634	0.999934	
3922														0.011249	0.291918	9.838989	-0.979622	0.200608	-0.009854	-0.200558	-0.979664	-0.005883	-0.010834	-0.003787	0.999934	
3923														-0.183782	0.178580	9.843063	-0.981599	0.190688	-0.010039	-0.190636	-0.981643	-0.005863	-0.010972	-0.003841	0.999932	
3924														-0.105789	0.243361	9.789605	-0.983431	0.180999	-0.010161	-0.180947	-0.983475	-0.005883	-0.011058	-0.003947	0.999931	
3925														-0.073878	0.290564	9.792676	-0.985125	0.171533	-0.010291	-0.171479	-0.985170	-0.005913	-0.011153	-0.004061	0.999930	
3926														-0.148833	0.210520	9.845899	-0.986713	0.162145	-0.010314	-0.162091	-0.986758	-0.005884	-0.011132	-0.004134	0.999929	
3927														-0.128636	0.094461	9.812565	-0.988232	0.152614	-0.010354	-0.152559	-0.988277	-0.005862	-0.011127	-0.004214	0.999929	
3928														-0.090348	-0.066475	9.836536	-0.989621	0.143325	-0.010394	-0.143270	-0.989666	-0.005864	-0.011127	-0.004314	0.999929	
3929														-0.104396	-0.138292	9.818487	-0.990893	0.134250	-0.010356	-0.134196	-0.990938	-0.005813	-0.011043	-0.004370	0.999929	
3930														0.001982	-0.083553	9.853298	-0.992065	0.125296	-0.010431	-0.125241	-0.992110	-0.005775	-0.011073	-0.004422	0.999929	
3931														-0.121232	0.162491	9.801310	-0.993158	0.116300	-0.010519	-0.116243	-0.993204	-0.005812	-0.011123	-0.004549	0.999928	
3932														-0.044090	0.074222	9.829301	-0.994190	0.107128	-0.010455	-0.107072	-0.994234	-0.005816	-0.011018	-0.004663	0.999928	
3933														-0.110090	-0.029974	9.852349	-0.995116	0.098160	-0.010399	-0.098102	-0.995159	-0.005900	-0.010928	-0.004851	0.999929	
3934														-0.262653	0.025772	9.777099	-0.995984	0.088923	-0.010440	-0.088865	-0.996026	-0.005908	-0.010924	-0.004956	0.999928	
3935														-0.098767	-0.103029	9.790966	-0.996776	0.079561	-0.010395	-0.079502	-0.996817	-0.005955	-0.010836	-0.005110	0.999928	
3936														-0.122204	0.077913	9.886242	-0.997494	0.069978	-0.010451	-0.069918	-0.997535	-0.005981	-0.010844	-0.005235	0.999927	
3937														-0.101779	0.016158	9.854855	-0.998127	0.060255	-0.010546	-0.060195	-0.998169	-0.005938	-0.010884	-0.005292	0.999927	
3938														-0.368357	-0.069954	9.770484	-0.998640	0.051053	-0.010608	-0.050992	-0.998682	-0.005908	-0.010896	-0.005359	0.999926	
3939														-0.341950	-0.002398	9.832976	-0.999072	0.041713	-0.010742	-0.041652	-0.999115	-0.005876	-0.010977	-0.005423	0.999925	
3940														-0.159518	0.064160	9.840951	-0.999434	0.031866	-0.010771	-0.031804	-0.999477	-0.005833	-0.010952	-0.005487	0.999925	
3941														-0.096546	0.025218	9.826292	-0.999707	0.021660	-0.010850	-0.021598	-0.999750	-0.005805	-0.010973	-0.005569	0.999924	
3942														-0.120119	0.042886	9.841212	-0.999878	0.011194	-0.010882	-0.011131	-0.999921	-0.005817	-0.010947	-0.005695	0.999924	
3943														-0.074025	-0.037933	9.838809	-0.999940	0.000517	-0.010918	-0.000454	-0.999983	-0.005759	-0.010920	-0.005754	0.999924	
3944														-0.184681	-0.054365	9.747292	-0.999885	-0.010490	-0.010922	0.010554	-0.999928	-0.005781	-0.010861	-0.005895	0.999924	
3945														-0.243257	-0.129289	9.859828	-0.999711	-0.021423	-0.010882	0.021486	-0.999753	-0.005718	-0.010757	-0.005950	0.999924	
3946														-0.215799	0.016533	9.867304	-0.999422	-0.032230	-0.010822	0.032293	-0.999462	-0.005735	-0.010632	-0.006081	0.999925	
3947														-0.198485	0.226125	9.833577	-0.999014	-0.043024	-0.010955	0.043089	-0.999055	-0.005771	-0.010697	-0.006237	0.999923	
3948														-0.189197	-0.117819	9.803225	-0.998554	-0.052636	-0.010905	0.052700	-0.998594	-0.005687	-0.010590	-0.006254	0.999924	
3949														-0.314909	-0.117088	9.844403	-0.998008	-0.062147	-0.010838	0.062210	-0.998047	-0.005601	-0.010468	-0.006264	0.999926	
3950														-0.134105	0.024637	9.781903	-0.997363	-0.071759	-0.010851	0.071822	-0.997402	-0.005564	-0.010424	-0.006328	0.999926	
3951														-0.143802	-0.063279	9.821599	-0.996713	-0.080277	-0.010892	0.080340	-0.996752	-0.005497	-0.010415	-0.006354	0.999926	
3952														-0.195368	0.115033	9.858273	-0.996063	-0.087969	-0.010942	0.088033	-0.996103	-0.005452	-0.010420	-0.006394	0.999925	
3953														-0.087578	0.091672	9.815624	-0.995303	-0.096168	-0.011078	0.096234	-0.995343	-0.005546	-0.010493	-0.006586	0.999923	
3954														0.179923	0.169614	9.825227	-0.994379	-0.105288	-0.011148	0.105356	-0.994419	-0.005642	-0.010491	-0.006785	0.999922	
3955														0.191523	-0.016099	9.816583	-0.993397	-0.114178	-0.011255	0.114246	-0.993437	-0.005593	-0.010543	-0.006842	0.999921	
3956														0.170519	0.034602	9.818529	-0.992401	-0.122532	-0.011226	0.122599	-0.992441	-0.005536	-0.010463	-0.006870	0.999922	
3957														0.120608	0.121751	9.807007	-0.991425	-0.130189	-0.011281	0.130257	-0.991465	-0.005527	-0.010465	-0.006949	0.999921	
3958														0.229638	-0.003900	9.847119	-0.990498	-0.137062	-0.011261	0.137130	-0.990538	-0.005507	-0.010399	-0.006999	0.999921	
3959														0.026536	0.063430	9.743622	-0.989579	-0.143544	-0.011343	0.143613	-0.989619	-0.005501	-0.010435	-0.007073	0.999921	
3960														0.205219	0.101850	9.807754	-0.988680	-0.149598	-0.011474	0.149668	-0.988721	-0.005475	-0.010526	-0.007130	0.999919	
3961														0.073553	0.059286	9.861776	-0.987553	-0.156869	-0.011491	0.156940	-0.987593	-0.005509	-0.010485	-0.007244	0.999919	
3962														0.024555	-0.045841	9.811680	-0.986302	-0.164541	-0.011587	0.164613	-0.986343	-0.005481	-0.010527	-0.007314	0.999918	
3963														0.126500	-0.158846	9.808087	-0.985137	-0.171373	-0.011703	0.171445	-0.985178	-0.005495	-0.010587	-0.007420	0.999916	
3964														0.039973	-0.073701	9.810662	-0.983969	-0.177949	-0.011817	0.178023	-0.984011	-0.005498	-0.010650	-0.007514	0.999915	
3965														0.126838	-0.012029	9.903409	-0.982839	-0.184081	-0.011922	0.184156	-0.982881	-0.005555	-0.010695	-0.007655	0.999914	
3966														0.056526	-0.219156	9.789128	-0.981669	-0.190217	-0.011998	0.190293	-0.981711	-0.005601	-0.010713	-0.007782	0.999912	
3967														0.132487	-0.144623	9.794260	-0.980483	-0.196233	-0.012107	0.196311	-0.980526	-0.005597	-0.010772	-0.007864	0.999911	
3968														0.016313	-0.231710	9.817093	-0.979398	-0.201577	-0.012128	0.201654	-0.979441	-0.005528	-0.010764	-0.007860	0.999911	
3969														0.232867	0.101068	9.837663	-0.978087	-0.207841	-0.012156	0.207918	-0.978131	-0.005394	-0.010769	-0.007803	0.999912	
3970														0.050584	0.199888	9.853999	-0.976546	-0.214962	-0.012204	0.215039	-0.976590	-0.005392	-0.010759	-0.007890	0.999911	
3971														0.257640	0.156853	9.826154	-0.974720	-0.223097	-0.012174	0.223175	-0.974763	-0.005439	-0.010654	-0.008018	0.999911	
3972														-0.100031	0.013148	9.842034	-0.972976	-0.230592	-0.012062	0.230669	-0.973018	-0.005361	-0.010501	-0.007998	0.999913	
3973														-0.346307	-0.370649	9.803842	-0.971422	-0.237046	-0.012198	0.237125	-0.971464	-0.005451	-0.010558	-0.008187	0.999911	
3974														-0.221337	-0.615286	9.778854	-0.969984	-0.242857	-0.012266	0.242937	-0.970027	-0.005420	-0.010582	-0.008237	0.999910	
3975														0.121349	-0.427527	9.823354	-0.968214	-0.249821	-0.012255	0.249901	-0.968256	-0.005403	-0.010516	-0.008293	0.999910	
3976														0.023213	-0.298521	9.857649	-0.966556	-0.256159	-0.012370	0.256239	-0.966598	-0.005407	-0.010571	-0.008396	0.999909	
3977														-0.089790	-0.129466	9.849833	-0.964919	-0.262256	-0.012348	0.262336	-0.964962	-0.005374	-0.010506	-0.008425	0.999909	
3978														-0.176478	-0.038885	9.823815	-0.963260	-0.268284	-0.012413	0.268365	-0.963302	-0.005370	-0.010517	-0.008504	0.999909	
3979														-0.211717	0.060239	9.769741	-0.961912	-0.273077	-0.012414	0.273157	-0.961954	-0.005341	-0.010484	-0.008529	0.999909	
3980														-0.116654	0.475898	9.880750	-0.960909	-0.276581	-0.012541	0.276665	-0.960951	-0.005505	-0.010528	-0.008760	0.999906	
3981														-0.231714	-0.019642	9.838844	-0.959588	-0.281131	-0.012468	0.281214	-0.959630	-0.005444	-0.010435	-0.008730	0.999907	
3982														-0.125606	-0.212293	9.815835	-0.958164	-0.285942	-0.012571	0.286027	-0.958206	-0.005508	-0.010471	-0.008873	0.999906	
3983														0.088393	-0.164418	9.821519	-0.956507	-0.291434	-0.012645	0.291519	-0.956549	-0.005500	-0.010492	-0.008947	0.999905	
3984														0.076429	-0.191913	9.849221	-0.954741	-0.297170	-0.012609	0.297254	-0.954783	-0.005392	-0.010437	-0.008896	0.999906	
3985														0.013865	-0.337183	9.811384	-0.952981	-0.302766	-0.012635	0.302850	-0.953023	-0.005336	-0.010426	-0.008912	0.999906	
3986														-0.021888	-0.274122	9.828802	-0.951281	-0.308067	-0.012585	0.308150	-0.951323	-0.005250	-0.010355	-0.008873	0.999907	
3987														-0.019447	-0.004142	9.842836	-0.949705	-0.312898	-0.012444	0.312979	-0.949746	-0.005118	-0.010217	-0.008755	0.999909	
3988														-0.166619	0.294649	9.827082	-0.947993	-0.318043	-0.012574	0.318126	-0.948034	-0.005229	-0.010258	-0.008957	0.999907	
3989														-0.093507	0.323379	9.859061	-0.946149	-0.323484	-0.012636	0.323568	-0.946190	-0.005266	-0.010253	-0.009071	0.999906	
3990														-0.081410	-0.077280	9.838335	-0.944149	-0.329273	-0.012700	0.329359	-0.944190	-0.005327	-0.010237	-0.009213	0.999905	
3991														-0.022696	-0.210311	9.832111	-0.942211	-0.334731	-0.012674	0.334816	-0.942251	-0.005317	-0.010162	-0.009253	0.999906	
3992														0.036019	-0.343343	9.825887	-0.940272	-0.340188	-0.012648	0.340274	-0.940311	-0.005306	-0.010088	-0.009293	0.999906	
3993														-0.123737	-0.106132	9.763029	-0.938382	-0.345364	-0.012755	0.345450	-0.938422	-0.005281	-0.010146	-0.009362	0.999905	
3994														0.065341	-0.103957	9.853497	-0.936559	-0.350280	-0.012682	0.350365	-0.936598	-0.005263	-0.010035	-0.009372	0.999906	
3995														0.106769	-0.116772	9.809317	-0.934996	-0.354425	-0.012850	0.354513	-0.935036	-0.005291	-0.010140	-0.009503	0.999903	
3996														0.155676	-0.153928	9.866640	-0.933681	-0.357876	-0.012838	0.357964	-0.933720	-0.005352	-0.010072	-0.009593	0.999903	
3997														0.238486	-0.006582	9.772745	-0.932426	-0.361132	-0.012897	0.361220	-0.932465	-0.005310	-0.010108	-0.009609	0.999903	
3998														0.171818	-0.016575	9.830085	-0.931329	-0.363951	-0.012899	0.364039	-0.931369	-0.005200	-0.010122	-0.009538	0.999903	
3999														0.131586	-0.172758	9.821318	-0.930365	-0.366406	-0.012968	0.366495	-0.930405	-0.005240	-0.010145	-0.009628	0.999902	
4000														0.223813	-0.174006	9.822337	-0.929526	-0.368529	-0.012983	0.368618	-0.929566	-0.005212	-0.010148	-0.009630	0.999902	
4001														0.284746	-0.040318	9.830177	-0.928993	-0.369867	-0.013072	0.369957	-0.929034	-0.005203	-0.010220	-0.009670	0.999901	
4002														0.165470	-0.292696	9.800715	-0.928771	-0.370422	-0.013138	0.370512	-0.928814	-0.005160	-0.010292	-0.009660	0.999900	
4003														0.178466	-0.298541	9.829901	-0.928571	-0.370925	-0.013069	0.371014	-0.928614	-0.005084	-0.010250	-0.009570	0.999902	
4004														0.051919	-0.441344	9.835481	-0.928467	-0.371186	-0.013061	0.371275	-0.928509	-0.005124	-0.010226	-0.009606	0.999902	
4005														0.003038	-0.128973	9.807547	-0.928501	-0.371094	-0.013211	0.371184	-0.928546	-0.005068	-0.010386	-0.009610	0.999900	
4006														-0.021326	-0.105290	9.793882	-0.928647	-0.370726	-0.013288	0.370817	-0.928692	-0.005096	-0.010452	-0.009659	0.999899	
4007														-0.092205	-0.084380	9.838181	-0.928828	-0.370271	-0.013352	0.370363	-0.928873	-0.005106	-0.010511	-0.009688	0.999898	
4008														-0.144560	-0.097844	9.836827	-0.929029	-0.369763	-0.013432	0.369854	-0.929076	-0.005043	-0.010615	-0.009653	0.999897	
4009														-0.089914	-0.116027	9.821857	-0.929155	-0.369448	-0.013410	0.369539	-0.929202	-0.005030	-0.010603	-0.009629	0.999897	
4010														-0.187090	-0.082472	9.822432	-0.929246	-0.369221	-0.013372	0.369312	-0.929292	-0.005026	-0.010571	-0.009608	0.999898	
4011														-0.148923	-0.064485	9.823875	-0.929178	-0.369399	-0.013144	0.369488	-0.929221	-0.005123	-0.010321	-0.009617	0.999900	
4012														-0.202832	-0.091204	9.807143	-0.928833	-0.370272	-0.012963	0.370361	-0.928873	-0.005216	-0.010109	-0.009646	0.999902	
4013														-0.235030	-0.097891	9.835779	-0.927766	-0.372935	-0.012991	0.373025	-0.927807	-0.005242	-0.010099	-0.009709	0.999902	
4014														-0.160839	-0.107760	9.821505	-0.926459	-0.376172	-0.012945	0.376262	-0.926499	-0.005236	-0.010024	-0.009722	0.999902	
4015														-0.202623	-0.141415	9.833908	-0.925246	-0.379148	-0.012937	0.379237	-0.925285	-0.005245	-0.009982	-0.009760	0.999903	
4016														-0.179791	-0.258215	9.842601	-0.924582	-0.380763	-0.012936	0.380852	-0.924621	-0.005178	-0.009990	-0.009714	0.999903	
4017														-0.151431	-0.080151	9.808463	-0.924016	-0.382139	-0.012827	0.382227	-0.924054	-0.005215	-0.009860	-0.009721	0.999904	
4018														-0.110364	0.042506	9.830267	-0.923495	-0.383392	-0.012972	0.383483	-0.923532	-0.005425	-0.009900	-0.009985	0.999901	
4019														0.022391	0.072696	9.833598	-0.923305	-0.383842	-0.013190	0.383937	-0.923342	-0.005592	-0.010032	-0.010228	0.999897	
4020														0.096263	-0.168944	9.821488	-0.923211	-0.384066	-0.013222	0.384162	-0.923249	-0.005595	-0.010058	-0.010245	0.999897	
4021														0.035572	-0.118610	9.823517	-0.923074	-0.384397	-0.013169	0.384492	-0.923111	-0.005638	-0.009989	-0.010268	0.999897	
4022														-0.298009	-0.149013	9.832634	-0.923038	-0.384483	-0.013172	0.384579	-0.923075	-0.005685	-0.009973	-0.010313	0.999897	
4023														-0.262449	-0.039650	9.853692	-0.923536	-0.383281	-0.013304	0.383380	-0.923573	-0.005807	-0.010061	-0.010463	0.999895	
4024														-0.104057	-0.000759	10.151947	-0.923855	-0.382477	-0.014220	0.382614	-0.923870	-0.008474	-0.009896	-0.013270	0.999863	
4025														0.008488	-0.107022	9.664873	-0.924482	-0.380886	-0.016064	0.381094	-0.924448	-0.012764	-0.009989	-0.017922	0.999789	
4026														0.103773	-0.255597	9.408521	-0.924118	-0.381762	-0.016222	0.381978	-0.924076	-0.013297	-0.009914	-0.018484	0.999780	
4027														0.150912	-0.272863	9.304582	-0.924219	-0.381598	-0.014229	0.381732	-0.924236	-0.008248	-0.010003	-0.013055	0.999865	
4028														0.005349	-0.088144	10.500478	-0.924089	-0.381949	-0.013200	0.382045	-0.924126	-0.005659	-0.010037	-0.010272	0.999897	
4029														-0.325046	-0.127062	9.848113	-0.923881	-0.382453	-0.013140	0.382549	-0.923918	-0.005680	-0.009967	-0.010275	0.999898	
4030														-0.023628	-0.103401	9.838447	-0.923557	-0.383237	-0.013124	0.383334	-0.923592	-0.005800	-0.009898	-0.010388	0.999897	
4031														0.102307	-0.095801	9.796360	-0.923119	-0.384296	-0.012971	0.384390	-0.923153	-0.005662	-0.009799	-0.010213	0.999900	
4032														0.028928	-0.086577	9.839849	-0.922965	-0.384679	-0.012593	0.384767	-0.922998	-0.005423	-0.009537	-0.009851	0.999906	
4033														-0.076346	-0.079044	9.809573	-0.922900	-0.384834	-0.012564	0.384921	-0.922933	-0.005413	-0.009512	-0.009832	0.999906	
4034														-0.211024	-0.159340	9.818324	-0.922406	-0.386014	-0.012630	0.386102	-0.922440	-0.005418	-0.009559	-0.009875	0.999906	
4035														-0.082364	-0.141439	9.835508	-0.921142	-0.389019	-0.012682	0.389108	-0.921177	-0.005378	-0.009591	-0.009889	0.999905	
4036														0.055264	0.000776	9.800820	-0.920518	-0.390495	-0.012682	0.390583	-0.920552	-0.005360	-0.009581	-0.009888	0.999905	
4037														-0.060495	-0.070574	9.810273	-0.920334	-0.390928	-0.012689	0.391016	-0.920368	-0.005353	-0.009586	-0.009888	0.999905	
4038														-0.047473	-0.076930	9.839443	-0.920283	-0.391048	-0.012715	0.391136	-0.920317	-0.005372	-0.009601	-0.009918	0.999905	
4039														-0.080032	-0.079943	9.794903	-0.920283	-0.391045	-0.012756	0.391135	-0.920318	-0.005383	-0.009635	-0.009943	0.999904	
4040														-0.076254	-0.114967	9.837081	-0.920276	-0.391061	-0.012768	0.391150	-0.920311	-0.005386	-0.009645	-0.009951	0.999904	
4041														-0.076708	-0.067350	9.810325	-0.920270	-0.391078	-0.012729	0.391167	-0.920304	-0.005409	-0.009599	-0.009957	0.999904	
4042														-0.085077	-0.081069	9.824157	-0.920270	-0.391076	-0.012726	0.391165	-0.920305	-0.005409	-0.009596	-0.009955	0.999904	
4043														-0.093447	-0.094788	9.837990	-0.920271	-0.391074	-0.012723	0.391164	-0.920305	-0.005409	-0.009594	-0.009954	0.999904	
4044														-0.073151	-0.101788	9.837871	-0.920264	-0.391090	-0.012715	0.391180	-0.920298	-0.005424	-0.009581	-0.009965	0.999904	
4045														-0.068608	-0.086498	9.809425	-0.920265	-0.391089	-0.012693	0.391178	-0.920299	-0.005435	-0.009556	-0.009967	0.999905	
4046														-0.073830	-0.102107	9.837863	-0.920259	-0.391104	-0.012694	0.391194	-0.920292	-0.005420	-0.009562	-0.009954	0.999905	
4047														-0.055863	-0.092920	9.838596	-0.920267	-0.391086	-0.012698	0.391175	-0.920300	-0.005454	-0.009553	-0.009986	0.999905	
4048														-0.084208	-0.084195	9.838734	-0.920267	-0.391084	-0.012698	0.391173	-0.920301	-0.005439	-0.009559	-0.009972	0.999905	
4049														-0.075035	-0.101786	9.823222	-0.920283	-0.391047	-0.012682	0.391136	-0.920317	-0.005421	-0.009551	-0.009950	0.999905	
4050														-0.061604	-0.106192	9.823148	-0.920277	-0.391062	-0.012686	0.391151	-0.920311	-0.005391	-0.009566	-0.009924	0.999905	
4051														-0.099681	-0.079724	9.838790	-0.920270	-0.391078	-0.012694	0.391167	-0.920304	-0.005409	-0.009567	-0.009944	0.999905	
4052														-0.076356	-0.101177	9.808582	-0.920278	-0.391059	-0.012679	0.391148	-0.920312	-0.005392	-0.009560	-0.009921	0.999905	
4053														-0.076493	-0.100437	9.793954	-0.920272	-0.391075	-0.012657	0.391164	-0.920305	-0.005403	-0.009536	-0.009923	0.999905	
4054														-0.072788	-0.089078	9.838641	-0.920287	-0.391039	-0.012634	0.391128	-0.920320	-0.005415	-0.009510	-0.009925	0.999906	
4055														-0.091430	-0.097912	9.823264	-0.920288	-0.391038	-0.012646	0.391126	-0.920321	-0.005419	-0.009519	-0.009933	0.999905	
4056														-0.092163	-0.098833	9.837883	-0.920289	-0.391036	-0.012646	0.391124	-0.920322	-0.005404	-0.009525	-0.009919	0.999905	
4057														-0.096751	-0.111138	9.807813	-0.920290	-0.391034	-0.012631	0.391122	-0.920323	-0.005386	-0.009518	-0.009896	0.999906	
4058														-0.074338	-0.088645	9.823999	-0.920276	-0.391067	-0.012609	0.391155	-0.920309	-0.005397	-0.009494	-0.009899	0.999906	
4059														-0.079358	-0.103519	9.837805	-0.920276	-0.391066	-0.012606	0.391154	-0.920310	-0.005397	-0.009491	-0.009897	0.999906	
4060														-0.093616	-0.098414	9.823238	-0.920270	-0.391081	-0.012618	0.391169	-0.920303	-0.005400	-0.009500	-0.009905	0.999906	
4061														-0.061657	-0.093797	9.823918	-0.920270	-0.391080	-0.012607	0.391169	-0.920303	-0.005430	-0.009479	-0.009928	0.999906	
4062														-0.066628	-0.108068	9.823095	-0.920263	-0.391096	-0.012634	0.391184	-0.920296	-0.005437	-0.009501	-0.009945	0.999905	
4063														-0.090754	-0.086078	9.838660	-0.920264	-0.391094	-0.012619	0.391182	-0.920297	-0.005418	-0.009494	-0.009922	0.999906	
4064														-0.095233	-0.098394	9.808588	-0.920258	-0.391110	-0.012600	0.391198	-0.920291	-0.005415	-0.009478	-0.009912	0.999906	
4065														-0.067930	-0.108289	9.823084	-0.920251	-0.391125	-0.012597	0.391214	-0.920284	-0.005415	-0.009475	-0.009911	0.999906	
4066														-0.096466	-0.100335	9.837827	-0.920237	-0.391159	-0.012606	0.391247	-0.920270	-0.005432	-0.009476	-0.009931	0.999906	
4067														-0.082866	-0.104058	9.823135	-0.920245	-0.391139	-0.012597	0.391227	-0.920279	-0.005385	-0.009487	-0.009884	0.999906	
4068														-0.074384	-0.076141	9.824769	-0.920239	-0.391155	-0.012594	0.391242	-0.920272	-0.005385	-0.009484	-0.009883	0.999906	
4069														-0.079493	-0.091165	9.838570	-0.920239	-0.391154	-0.012598	0.391242	-0.920272	-0.005418	-0.009475	-0.009915	0.999906	
4070														-0.084254	-0.104530	9.823118	-0.920247	-0.391134	-0.012598	0.391222	-0.920280	-0.005404	-0.009480	-0.009901	0.999906	
4071														-0.075996	-0.077623	9.839379	-0.920248	-0.391132	-0.012609	0.391221	-0.920281	-0.005407	-0.009489	-0.009909	0.999906	
4072														-0.080846	-0.090866	9.823927	-0.920249	-0.391130	-0.012609	0.391218	-0.920282	-0.005393	-0.009494	-0.009895	0.999906	
4073														-0.095592	-0.087330	9.838603	-0.920242	-0.391146	-0.012635	0.391234	-0.920275	-0.005399	-0.009516	-0.009912	0.999906	
4074														-0.072479	-0.109705	9.823035	-0.920243	-0.391145	-0.012613	0.391233	-0.920276	-0.005411	-0.009491	-0.009914	0.999906	
4075														-0.077689	-0.077484	9.824733	-0.920244	-0.391143	-0.012594	0.391231	-0.920276	-0.005408	-0.009475	-0.009904	0.999906	
4076														-0.073278	-0.110675	9.837654	-0.920244	-0.391142	-0.012576	0.391230	-0.920277	-0.005404	-0.009459	-0.009893	0.999906	
4077														-0.069418	-0.097704	9.853098	-0.920245	-0.391140	-0.012587	0.391228	-0.920278	-0.005408	-0.009468	-0.009901	0.999906	
4078														-0.078893	-0.077824	9.824721	-0.920239	-0.391156	-0.012569	0.391244	-0.920271	-0.005404	-0.009453	-0.009891	0.999906	
4079														-0.083823	-0.091776	9.823894	-0.920247	-0.391137	-0.012568	0.391224	-0.920280	-0.005390	-0.009458	-0.009877	0.999906	
4080														-0.075143	-0.111126	9.837635	-0.920240	-0.391152	-0.012580	0.391240	-0.920273	-0.005393	-0.009467	-0.009885	0.999906	
4081														-0.084445	-0.091216	9.809259	-0.920241	-0.391151	-0.012528	0.391239	-0.920273	-0.005398	-0.009418	-0.009869	0.999907	
4082														-0.075337	-0.109695	9.808378	-0.920242	-0.391149	-0.012542	0.391237	-0.920274	-0.005387	-0.009435	-0.009864	0.999907	
4083														-0.085781	-0.093042	9.838499	-0.920242	-0.391148	-0.012553	0.391235	-0.920275	-0.005390	-0.009444	-0.009872	0.999907	
4084														-0.090400	-0.105643	9.808416	-0.920235	-0.391164	-0.012562	0.391251	-0.920268	-0.005409	-0.009444	-0.009892	0.999906	
4085														-0.068362	-0.084122	9.839261	-0.920236	-0.391162	-0.012561	0.391249	-0.920269	-0.005394	-0.009450	-0.009878	0.999907	
4086														-0.073194	-0.097255	9.823806	-0.920244	-0.391142	-0.012560	0.391230	-0.920277	-0.005379	-0.009455	-0.009864	0.999907	
4087														-0.087409	-0.092019	9.809226	-0.920230	-0.391175	-0.012557	0.391263	-0.920263	-0.005379	-0.009452	-0.009863	0.999907	
4088														-0.083503	-0.079112	9.824673	-0.920246	-0.391139	-0.012549	0.391227	-0.920278	-0.005395	-0.009439	-0.009874	0.999907	
4089														-0.060124	-0.100657	9.794493	-0.920239	-0.391155	-0.012546	0.391243	-0.920272	-0.005395	-0.009436	-0.009873	0.999907	
4090														-0.089081	-0.094277	9.838458	-0.920240	-0.391154	-0.012554	0.391241	-0.920272	-0.005413	-0.009435	-0.009893	0.999907	
4091														-0.071301	-0.085935	9.853858	-0.920248	-0.391135	-0.012549	0.391222	-0.920280	-0.005414	-0.009431	-0.009891	0.999907	
4092														-0.089585	-0.092894	9.809198	-0.920249	-0.391133	-0.012537	0.391220	-0.920281	-0.005381	-0.009433	-0.009856	0.999907	
4093														-0.062138	-0.101137	9.794475	-0.920257	-0.391113	-0.012566	0.391201	-0.920290	-0.005373	-0.009463	-0.009861	0.999907	
4094														-0.063930	-0.105414	9.867592	-0.920265	-0.391094	-0.012592	0.391182	-0.920298	-0.005381	-0.009484	-0.009877	0.999906	
4095														-0.078154	-0.100275	9.853006	-0.920258	-0.391110	-0.012573	0.391197	-0.920291	-0.005377	-0.009468	-0.009867	0.999906	
4096														-0.077528	-0.097235	9.794504	-0.920266	-0.391092	-0.012547	0.391179	-0.920299	-0.005404	-0.009434	-0.009881	0.999907	
4097														-0.059487	-0.088159	9.795285	-0.920274	-0.391073	-0.012573	0.391160	-0.920307	-0.005411	-0.009455	-0.009898	0.999906	
4098														-0.079506	-0.101186	9.852986	-0.920259	-0.391106	-0.012611	0.391194	-0.920292	-0.005436	-0.009480	-0.009936	0.999906	
4099														-0.116866	-0.072380	9.824690	-0.920275	-0.391070	-0.012591	0.391158	-0.920308	-0.005433	-0.009463	-0.009925	0.999906	
4100														-0.084537	-0.113813	9.822892	-0.920276	-0.391068	-0.012591	0.391156	-0.920309	-0.005419	-0.009468	-0.009912	0.999906	
4101														-0.053024	-0.109876	9.838262	-0.920276	-0.391065	-0.012620	0.391154	-0.920309	-0.005411	-0.009498	-0.009916	0.999906	
4102														-0.109152	-0.091231	9.823792	-0.920277	-0.391064	-0.012628	0.391153	-0.920310	-0.005430	-0.009498	-0.009936	0.999906	
4103														-0.061092	-0.082357	9.663629	-0.920270	-0.391079	-0.012672	0.391168	-0.920303	-0.005425	-0.009541	-0.009949	0.999905	
4104														-0.042875	-0.120585	9.925942	-0.920262	-0.391094	-0.012796	0.391185	-0.920296	-0.005485	-0.009630	-0.010053	0.999903	
4105														-0.157296	-0.092684	10.072478	-0.920249	-0.391127	-0.012728	0.391217	-0.920283	-0.005423	-0.009592	-0.009970	0.999904	
4106														-0.089331	-0.068072	9.561315	-0.920258	-0.391108	-0.012671	0.391197	-0.920291	-0.005380	-0.009557	-0.009908	0.999905	
4107														0.031667	-0.122816	9.809599	-0.920257	-0.391106	-0.012750	0.391196	-0.920291	-0.005431	-0.009609	-0.009985	0.999904	
4108														-0.044912	-0.120233	9.911302	-0.920265	-0.391087	-0.012764	0.391177	-0.920300	-0.005420	-0.009627	-0.009981	0.999904	
4109														-0.191959	-0.048643	9.766271	-0.920273	-0.391068	-0.012786	0.391158	-0.920307	-0.005442	-0.009638	-0.010010	0.999903	
4110														-0.083233	-0.092684	9.897604	-0.920266	-0.391084	-0.012823	0.391175	-0.920300	-0.005467	-0.009663	-0.010048	0.999903	
4111														0.001338	-0.114670	9.795027	-0.920266	-0.391083	-0.012831	0.391174	-0.920301	-0.005486	-0.009663	-0.010068	0.999903	
4112														-0.110254	-0.077775	9.780662	-0.920274	-0.391064	-0.012811	0.391155	-0.920309	-0.005483	-0.009646	-0.010057	0.999903	
4113														-0.144415	-0.086931	9.852995	-0.920267	-0.391079	-0.012867	0.391171	-0.920302	-0.005497	-0.009692	-0.010092	0.999902	
4114														-0.070897	-0.095824	9.853672	-0.920276	-0.391060	-0.012840	0.391151	-0.920310	-0.005461	-0.009681	-0.010048	0.999903	
4115														-0.047263	-0.116472	9.808891	-0.920261	-0.391093	-0.012845	0.391185	-0.920296	-0.005493	-0.009672	-0.010080	0.999902	
4116														-0.085179	-0.090175	9.824443	-0.920262	-0.391092	-0.012852	0.391184	-0.920296	-0.005512	-0.009672	-0.010100	0.999902	
4117														-0.071883	-0.095731	9.839032	-0.920263	-0.391091	-0.012833	0.391182	-0.920297	-0.005509	-0.009656	-0.010090	0.999902	
4118														-0.043945	-0.103287	9.809722	-0.920256	-0.391107	-0.012830	0.391198	-0.920290	-0.005509	-0.009652	-0.010088	0.999903	
4119														-0.077071	-0.109108	9.823553	-0.920264	-0.391088	-0.012840	0.391179	-0.920298	-0.005513	-0.009661	-0.010096	0.999902	
4120														-0.115357	-0.084176	9.868351	-0.920265	-0.391087	-0.012803	0.391178	-0.920299	-0.005521	-0.009623	-0.010089	0.999903	
4121														-0.086943	-0.090108	9.809794	-0.920265	-0.391085	-0.012817	0.391176	-0.920299	-0.005510	-0.009640	-0.010084	0.999903	
4122														-0.082930	-0.076227	9.810636	-0.920281	-0.391048	-0.012800	0.391139	-0.920315	-0.005493	-0.009633	-0.010062	0.999903	
4123														-0.074459	-0.096442	9.839006	-0.920267	-0.391082	-0.012809	0.391173	-0.920301	-0.005511	-0.009633	-0.010082	0.999903	
4124														-0.088626	-0.091436	9.824401	-0.920267	-0.391080	-0.012816	0.391172	-0.920301	-0.005529	-0.009632	-0.010102	0.999903	
4125														-0.089369	-0.092436	9.839018	-0.920261	-0.391096	-0.012816	0.391187	-0.920295	-0.005514	-0.009638	-0.010088	0.999903	
4126														-0.070971	-0.081580	9.810588	-0.920269	-0.391077	-0.012826	0.391168	-0.920303	-0.005518	-0.009646	-0.010095	0.999903	
4127														-0.062389	-0.101074	9.824333	-0.920269	-0.391075	-0.012837	0.391167	-0.920303	-0.005522	-0.009654	-0.010103	0.999902	
4128														-0.063285	-0.101999	9.838952	-0.920263	-0.391090	-0.012855	0.391182	-0.920297	-0.005495	-0.009681	-0.010086	0.999902	
4129														-0.078147	-0.098314	9.853592	-0.920278	-0.391053	-0.012868	0.391145	-0.920313	-0.005485	-0.009698	-0.010081	0.999902	
4130														-0.073625	-0.082702	9.825192	-0.920287	-0.391034	-0.012840	0.391125	-0.920321	-0.005449	-0.009687	-0.010037	0.999903	
4131														-0.064366	-0.100333	9.809694	-0.920280	-0.391050	-0.012833	0.391141	-0.920314	-0.005464	-0.009674	-0.010048	0.999903	
4132														-0.074741	-0.083698	9.839807	-0.920266	-0.391083	-0.012848	0.391174	-0.920301	-0.005452	-0.009692	-0.010043	0.999903	
4133														-0.084382	-0.111623	9.838100	-0.920274	-0.391064	-0.012844	0.391155	-0.920309	-0.005453	-0.009688	-0.010042	0.999903	
4134														-0.103868	-0.075615	9.854459	-0.920267	-0.391080	-0.012843	0.391170	-0.920302	-0.005438	-0.009693	-0.010028	0.999903	
4135														-0.080959	-0.097811	9.838941	-0.920275	-0.391060	-0.012860	0.391151	-0.920311	-0.005412	-0.009719	-0.010011	0.999903	
4136														-0.085271	-0.109181	9.794215	-0.920291	-0.391024	-0.012829	0.391114	-0.920327	-0.005391	-0.009699	-0.009979	0.999903	
4137														-0.063218	-0.087548	9.825146	-0.920277	-0.391056	-0.012844	0.391147	-0.920313	-0.005379	-0.009717	-0.009974	0.999903	
4138														-0.086553	-0.110203	9.808827	-0.920292	-0.391020	-0.012850	0.391111	-0.920328	-0.005399	-0.009715	-0.009994	0.999903	
4139														-0.078426	-0.084391	9.839773	-0.920285	-0.391037	-0.012858	0.391127	-0.920321	-0.005417	-0.009715	-0.010014	0.999903	
4140														-0.082978	-0.096843	9.809666	-0.920294	-0.391017	-0.012856	0.391108	-0.920329	-0.005403	-0.009720	-0.010000	0.999903	
4141														-0.079161	-0.083845	9.825139	-0.920294	-0.391016	-0.012852	0.391106	-0.920330	-0.005403	-0.009716	-0.009999	0.999903	
4142														-0.066057	-0.089453	9.839742	-0.920295	-0.391014	-0.012878	0.391105	-0.920330	-0.005410	-0.009736	-0.010015	0.999902	
4143														-0.066472	-0.088851	9.825112	-0.920295	-0.391012	-0.012892	0.391103	-0.920331	-0.005399	-0.009754	-0.010011	0.999902	
4144														-0.066464	-0.087405	9.795861	-0.920296	-0.391011	-0.012884	0.391102	-0.920331	-0.005414	-0.009741	-0.010022	0.999902	
4145														-0.072170	-0.103851	9.838871	-0.920282	-0.391044	-0.012869	0.391135	-0.920318	-0.005395	-0.009734	-0.009999	0.999903	
4146														-0.082233	-0.086353	9.854357	-0.920297	-0.391008	-0.012875	0.391099	-0.920333	-0.005415	-0.009732	-0.010019	0.999902	
4147														-0.100714	-0.094340	9.824257	-0.920290	-0.391024	-0.012886	0.391115	-0.920326	-0.005418	-0.009741	-0.010026	0.999902	
4148														-0.073338	-0.103717	9.824230	-0.920284	-0.391040	-0.012879	0.391131	-0.920319	-0.005433	-0.009728	-0.010037	0.999902	
4149														-0.083005	-0.084669	9.810468	-0.920284	-0.391038	-0.012908	0.391129	-0.920320	-0.005425	-0.009758	-0.010041	0.999902	
4150														-0.081326	-0.090011	9.821213	-0.920285	-0.391036	-0.012914	0.391128	-0.920321	-0.005419	-0.009766	-0.010038	0.999902	
4151														-0.079647	-0.095352	9.831959	-0.920285	-0.391035	-0.012920	0.391126	-0.920321	-0.005414	-0.009773	-0.010035	0.999902	
4152														-0.075650	-0.104311	9.824206	-0.920286	-0.391033	-0.012916	0.391124	-0.920322	-0.005400	-0.009776	-0.010021	0.999902	
4153														-0.071471	-0.090516	9.825062	-0.920287	-0.391032	-0.012894	0.391123	-0.920323	-0.005411	-0.009750	-0.010023	0.999902	
4154														-0.095144	-0.114922	9.837964	-0.920294	-0.391013	-0.012912	0.391105	-0.920330	-0.005449	-0.009753	-0.010064	0.999902	
4155														-0.086511	-0.087593	9.839677	-0.920295	-0.391012	-0.012919	0.391104	-0.920330	-0.005467	-0.009752	-0.010084	0.999902	
4156														-0.062847	-0.108370	9.794930	-0.920296	-0.391011	-0.012900	0.391102	-0.920331	-0.005464	-0.009735	-0.010074	0.999902	
4157														-0.091500	-0.101088	9.824181	-0.920311	-0.390975	-0.012888	0.391067	-0.920346	-0.005495	-0.009713	-0.010097	0.999902	
4158														-0.073898	-0.093677	9.854280	-0.920319	-0.390957	-0.012883	0.391048	-0.920354	-0.005496	-0.009708	-0.010096	0.999902	
4159														-0.087899	-0.088546	9.839656	-0.920327	-0.390938	-0.012871	0.391030	-0.920361	-0.005526	-0.009686	-0.010119	0.999902	
4160														-0.074487	-0.093308	9.839646	-0.920320	-0.390954	-0.012889	0.391045	-0.920355	-0.005500	-0.009712	-0.010102	0.999902	
4161														-0.060467	-0.095467	9.795769	-0.920321	-0.390952	-0.012903	0.391043	-0.920356	-0.005489	-0.009729	-0.010097	0.999902	
4162														-0.089455	-0.089045	9.839638	-0.920321	-0.390951	-0.012873	0.391043	-0.920356	-0.005530	-0.009686	-0.010124	0.999902	
4163														-0.094232	-0.103277	9.838767	-0.920315	-0.390968	-0.012866	0.391060	-0.920349	-0.005545	-0.009673	-0.010134	0.999902	
4164														-0.071117	-0.078780	9.811244	-0.920315	-0.390966	-0.012888	0.391059	-0.920349	-0.005567	-0.009685	-0.010163	0.999901	
4165														-0.095215	-0.103816	9.838752	-0.920316	-0.390965	-0.012872	0.391057	-0.920350	-0.005549	-0.009677	-0.010141	0.999902	
4166														-0.081561	-0.107592	9.824123	-0.920316	-0.390963	-0.012886	0.391055	-0.920351	-0.005538	-0.009694	-0.010136	0.999902	
4167														-0.068325	-0.112117	9.824119	-0.920325	-0.390943	-0.012891	0.391035	-0.920360	-0.005494	-0.009717	-0.010097	0.999902	
4168														-0.087975	-0.122972	9.852492	-0.920325	-0.390941	-0.012890	0.391033	-0.920361	-0.005479	-0.009721	-0.010083	0.999902	
4169														-0.073541	-0.078110	9.796600	-0.920326	-0.390940	-0.012867	0.391032	-0.920361	-0.005491	-0.009696	-0.010085	0.999902	
4170														-0.083424	-0.106958	9.809481	-0.920319	-0.390956	-0.012893	0.391048	-0.920354	-0.005498	-0.009717	-0.010102	0.999902	
4171														-0.079306	-0.093317	9.810343	-0.920335	-0.390920	-0.012869	0.391012	-0.920369	-0.005511	-0.009690	-0.010104	0.999902	
4172														-0.061410	-0.084894	9.825836	-0.920328	-0.390936	-0.012854	0.391027	-0.920363	-0.005493	-0.009683	-0.010081	0.999902	
4173														-0.099276	-0.104493	9.838704	-0.920321	-0.390951	-0.012894	0.391043	-0.920356	-0.005503	-0.009716	-0.010107	0.999902	
4174														-0.100137	-0.105653	9.853317	-0.920322	-0.390950	-0.012887	0.391042	-0.920356	-0.005518	-0.009703	-0.010118	0.999902	
4175														-0.086199	-0.109696	9.838695	-0.920322	-0.390950	-0.012860	0.391042	-0.920356	-0.005545	-0.009669	-0.010132	0.999902	
4176														-0.068306	-0.101277	9.854191	-0.920331	-0.390930	-0.012847	0.391022	-0.920365	-0.005512	-0.009669	-0.010097	0.999902	
4177														-0.082303	-0.095858	9.839560	-0.920331	-0.390929	-0.012825	0.391021	-0.920365	-0.005524	-0.009644	-0.010099	0.999903	
4178														-0.095888	-0.089793	9.810305	-0.920332	-0.390928	-0.012802	0.391020	-0.920366	-0.005536	-0.009618	-0.010101	0.999903	
4179														-0.096849	-0.091648	9.839544	-0.920318	-0.390962	-0.012813	0.391053	-0.920351	-0.005539	-0.009627	-0.010108	0.999903	
4180														-0.087792	-0.109423	9.824050	-0.920311	-0.390977	-0.012812	0.391068	-0.920345	-0.005524	-0.009632	-0.010094	0.999903	
4181														-0.055237	-0.103001	9.795691	-0.920312	-0.390976	-0.012782	0.391066	-0.920346	-0.005503	-0.009612	-0.010063	0.999903	
4182														-0.079510	-0.081562	9.825789	-0.920298	-0.391008	-0.012796	0.391099	-0.920332	-0.005491	-0.009630	-0.010058	0.999903	
4183														-0.056629	-0.103810	9.810307	-0.920292	-0.391023	-0.012799	0.391114	-0.920326	-0.005461	-0.009643	-0.010032	0.999903	
4184														-0.085217	-0.095534	9.824905	-0.920307	-0.390988	-0.012790	0.391078	-0.920341	-0.005477	-0.009630	-0.010043	0.999903	
4185														-0.085917	-0.096668	9.839521	-0.920293	-0.391021	-0.012798	0.391112	-0.920327	-0.005495	-0.009629	-0.010063	0.999903	
4186														-0.081119	-0.081394	9.811145	-0.920293	-0.391020	-0.012775	0.391111	-0.920327	-0.005507	-0.009604	-0.010064	0.999903	
4187														-0.076839	-0.114005	9.809400	-0.920301	-0.391001	-0.012800	0.391093	-0.920335	-0.005515	-0.009624	-0.010081	0.999903	
4188														-0.087087	-0.096732	9.824877	-0.920301	-0.391000	-0.012822	0.391092	-0.920335	-0.005537	-0.009636	-0.010110	0.999902	
4189														-0.087711	-0.097006	9.824869	-0.920302	-0.390998	-0.012835	0.391090	-0.920336	-0.005526	-0.009652	-0.010105	0.999902	
4190														-0.069776	-0.087951	9.825753	-0.920310	-0.390980	-0.012842	0.391072	-0.920344	-0.005545	-0.009651	-0.010125	0.999902	
4191														-0.084518	-0.084308	9.840355	-0.920311	-0.390978	-0.012844	0.391069	-0.920345	-0.005515	-0.009665	-0.010099	0.999902	
4192														-0.061215	-0.105919	9.810257	-0.920318	-0.390960	-0.012847	0.391051	-0.920352	-0.005549	-0.009654	-0.010131	0.999902	
4193														-0.089463	-0.097132	9.810219	-0.920304	-0.390993	-0.012855	0.391085	-0.920338	-0.005567	-0.009654	-0.010151	0.999902	
4194														-0.071910	-0.088789	9.825730	-0.920305	-0.390991	-0.012876	0.391083	-0.920339	-0.005526	-0.009689	-0.010121	0.999902	
4195														-0.091044	-0.098074	9.824828	-0.920305	-0.390989	-0.012871	0.391081	-0.920340	-0.005527	-0.009685	-0.010120	0.999902	
4196														-0.068204	-0.074208	9.811979	-0.920306	-0.390987	-0.012885	0.391079	-0.920341	-0.005516	-0.009702	-0.010115	0.999902	
4197														-0.082588	-0.116023	9.809330	-0.920321	-0.390951	-0.012894	0.391043	-0.920356	-0.005520	-0.009709	-0.010123	0.999902	
4198														-0.088457	-0.085549	9.840310	-0.920314	-0.390967	-0.012905	0.391059	-0.920349	-0.005523	-0.009718	-0.010130	0.999901	
4199														-0.065981	-0.109614	9.854085	-0.920322	-0.390948	-0.012885	0.391040	-0.920357	-0.005521	-0.009700	-0.010120	0.999902	
4200														-0.079699	-0.103281	9.824818	-0.920331	-0.390929	-0.012872	0.391021	-0.920366	-0.005489	-0.009701	-0.010084	0.999902	
4201														-0.061700	-0.094195	9.825716	-0.920324	-0.390945	-0.012891	0.391038	-0.920358	-0.005525	-0.009704	-0.010126	0.999902	
4202														-0.094395	-0.098363	9.810160	-0.920309	-0.390978	-0.012905	0.391071	-0.920344	-0.005513	-0.009722	-0.010121	0.999902	
4203														-0.095526	-0.100047	9.839398	-0.920310	-0.390977	-0.012889	0.391069	-0.920345	-0.005495	-0.009714	-0.010098	0.999902	
4204														-0.062946	-0.093759	9.811081	-0.920304	-0.390993	-0.012885	0.391085	-0.920338	-0.005495	-0.009710	-0.010097	0.999902	
4205														-0.064033	-0.095506	9.840320	-0.920312	-0.390974	-0.012883	0.391065	-0.920347	-0.005481	-0.009714	-0.010083	0.999902	
4206														-0.064157	-0.094713	9.825696	-0.920305	-0.390990	-0.012864	0.391081	-0.920340	-0.005478	-0.009697	-0.010072	0.999902	
4207														-0.082697	-0.103309	9.810160	-0.920313	-0.390972	-0.012856	0.391063	-0.920348	-0.005494	-0.009684	-0.010083	0.999902	
4208														-0.093170	-0.086714	9.840256	-0.920299	-0.391004	-0.012885	0.391096	-0.920334	-0.005485	-0.009714	-0.010087	0.999902	
4209														-0.093563	-0.085929	9.825628	-0.920307	-0.390985	-0.012887	0.391076	-0.920342	-0.005457	-0.009727	-0.010061	0.999902	
4210														-0.084500	-0.103713	9.810141	-0.920322	-0.390949	-0.012893	0.391041	-0.920357	-0.005476	-0.009725	-0.010081	0.999902	
4211														-0.099105	-0.100135	9.824729	-0.920315	-0.390965	-0.012874	0.391056	-0.920350	-0.005473	-0.009709	-0.010071	0.999902	
4212														-0.057737	-0.114140	9.824808	-0.920316	-0.390964	-0.012866	0.391056	-0.920351	-0.005488	-0.009695	-0.010082	0.999902	
4213														-0.067128	-0.095018	9.811041	-0.920309	-0.390980	-0.012861	0.391072	-0.920344	-0.005488	-0.009691	-0.010080	0.999902	
4214														-0.071082	-0.094583	9.821997	-0.920314	-0.390970	-0.012841	0.391062	-0.920348	-0.005492	-0.009671	-0.010076	0.999902	
4215														-0.075037	-0.094148	9.832953	-0.920318	-0.390960	-0.012821	0.391052	-0.920352	-0.005497	-0.009651	-0.010072	0.999903	
4216														-0.082171	-0.090699	9.811000	-0.920312	-0.390976	-0.012836	0.391067	-0.920346	-0.005471	-0.009674	-0.010054	0.999903	
4217														-0.101568	-0.100750	9.824698	-0.920298	-0.391008	-0.012820	0.391099	-0.920332	-0.005452	-0.009667	-0.010031	0.999903	
4218														-0.088095	-0.105406	9.824724	-0.920306	-0.390990	-0.012815	0.391080	-0.920340	-0.005453	-0.009662	-0.010030	0.999903	
4219														-0.069669	-0.095521	9.811018	-0.920314	-0.390972	-0.012807	0.391062	-0.920348	-0.005469	-0.009648	-0.010041	0.999903	
4220														-0.074989	-0.110434	9.824745	-0.920307	-0.390988	-0.012803	0.391078	-0.920341	-0.005469	-0.009644	-0.010040	0.999903	
4221														-0.075104	-0.109638	9.810120	-0.920308	-0.390986	-0.012786	0.391076	-0.920342	-0.005451	-0.009637	-0.010017	0.999903	
4222														-0.099447	-0.088209	9.840182	-0.920308	-0.390984	-0.012800	0.391075	-0.920343	-0.005440	-0.009654	-0.010012	0.999903	
4223														-0.085888	-0.092105	9.825587	-0.920302	-0.391000	-0.012814	0.391090	-0.920336	-0.005429	-0.009670	-0.010007	0.999903	
4224														-0.072705	-0.097768	9.840238	-0.920295	-0.391017	-0.012788	0.391107	-0.920329	-0.005455	-0.009636	-0.010022	0.999903	
4225														-0.100452	-0.087695	9.825544	-0.920289	-0.391032	-0.012761	0.391122	-0.920323	-0.005419	-0.009625	-0.009978	0.999904	
4226														-0.059178	-0.101608	9.825647	-0.920304	-0.390997	-0.012767	0.391087	-0.920338	-0.005438	-0.009623	-0.009998	0.999904	
4227														-0.073593	-0.097275	9.825604	-0.920304	-0.390995	-0.012777	0.391085	-0.920338	-0.005442	-0.009631	-0.010005	0.999904	
4228														-0.088358	-0.093610	9.840183	-0.920298	-0.391011	-0.012776	0.391101	-0.920332	-0.005427	-0.009636	-0.009991	0.999904	
4229														-0.074588	-0.097544	9.825594	-0.920291	-0.391027	-0.012768	0.391117	-0.920325	-0.005442	-0.009623	-0.010002	0.999904	
4230														-0.093624	-0.107081	9.824655	-0.920298	-0.391008	-0.012793	0.391098	-0.920333	-0.005450	-0.009643	-0.010019	0.999903	
4231														-0.085056	-0.079549	9.826436	-0.920292	-0.391024	-0.012807	0.391114	-0.920326	-0.005438	-0.009660	-0.010014	0.999903	
4232														-0.076278	-0.098238	9.825574	-0.920307	-0.390988	-0.012798	0.391079	-0.920341	-0.005455	-0.009646	-0.010025	0.999903	
4233														-0.076709	-0.098651	9.825567	-0.920299	-0.391005	-0.012817	0.391096	-0.920334	-0.005491	-0.009649	-0.010066	0.999903	
4234														-0.077057	-0.098027	9.810938	-0.920300	-0.391002	-0.012837	0.391093	-0.920335	-0.005450	-0.009683	-0.010036	0.999903	
4235														-0.069061	-0.118212	9.839320	-0.920308	-0.390983	-0.012832	0.391074	-0.920343	-0.005451	-0.009678	-0.010035	0.999903	
4236														-0.064513	-0.103708	9.825591	-0.920309	-0.390982	-0.012824	0.391073	-0.920344	-0.005466	-0.009665	-0.010046	0.999903	
4237														-0.074247	-0.085451	9.826441	-0.920302	-0.390998	-0.012834	0.391089	-0.920337	-0.005470	-0.009673	-0.010053	0.999903	
4238														-0.097954	-0.108788	9.824594	-0.920310	-0.390979	-0.012844	0.391070	-0.920345	-0.005474	-0.009681	-0.010060	0.999903	
4239														-0.085007	-0.114537	9.839250	-0.920317	-0.390961	-0.012869	0.391052	-0.920352	-0.005482	-0.009701	-0.010077	0.999902	
4240														-0.094888	-0.096200	9.840097	-0.920303	-0.390994	-0.012869	0.391086	-0.920338	-0.005467	-0.009706	-0.010064	0.999902	
4241														-0.081257	-0.100063	9.825516	-0.920318	-0.390958	-0.012881	0.391050	-0.920353	-0.005457	-0.009722	-0.010059	0.999902	
4242														-0.063368	-0.090836	9.826458	-0.920312	-0.390973	-0.012884	0.391064	-0.920347	-0.005427	-0.009736	-0.010033	0.999902	
4243														-0.077961	-0.086246	9.826405	-0.920305	-0.390989	-0.012913	0.391080	-0.920341	-0.005419	-0.009765	-0.010037	0.999902	
4244														-0.084173	-0.102699	9.869360	-0.920272	-0.391074	-0.012650	0.391162	-0.920306	-0.005342	-0.009552	-0.009864	0.999906	
4245														-0.074714	-0.119506	9.839263	-0.920273	-0.391072	-0.012648	0.391160	-0.920307	-0.005328	-0.009557	-0.009851	0.999906	
4246														-0.078900	-0.084736	9.797150	-0.920266	-0.391088	-0.012659	0.391175	-0.920301	-0.005332	-0.009564	-0.009858	0.999906	
4247														-0.098823	-0.096685	9.840054	-0.920268	-0.391085	-0.012636	0.391172	-0.920302	-0.005344	-0.009538	-0.009861	0.999906	
4248														-0.066575	-0.091448	9.826431	-0.920268	-0.391083	-0.012664	0.391171	-0.920303	-0.005337	-0.009567	-0.009866	0.999906	
4249														-0.085138	-0.099146	9.796229	-0.920284	-0.391046	-0.012676	0.391134	-0.920318	-0.005328	-0.009583	-0.009861	0.999905	
4250														-0.081863	-0.088065	9.840988	-0.920284	-0.391046	-0.012646	0.391135	-0.920318	-0.005370	-0.009539	-0.009888	0.999906	
4251														-0.086057	-0.100427	9.810839	-0.920286	-0.391042	-0.012630	0.391130	-0.920320	-0.005352	-0.009531	-0.009866	0.999906	
4252														-0.091822	-0.069707	9.841832	-0.920286	-0.391042	-0.012628	0.391129	-0.920320	-0.005338	-0.009535	-0.009852	0.999906	
4253														-0.087453	-0.101310	9.825450	-0.920286	-0.391042	-0.012642	0.391130	-0.920320	-0.005328	-0.009551	-0.009848	0.999906	
4254														-0.073728	-0.105303	9.810878	-0.920279	-0.391058	-0.012634	0.391146	-0.920313	-0.005344	-0.009537	-0.009859	0.999906	
4255														-0.084123	-0.088720	9.840963	-0.920280	-0.391056	-0.012644	0.391144	-0.920314	-0.005348	-0.009545	-0.009867	0.999906	
4256														-0.074985	-0.106641	9.825486	-0.920294	-0.391022	-0.012635	0.391110	-0.920328	-0.005365	-0.009530	-0.009879	0.999906	
4257														-0.084995	-0.089277	9.840951	-0.920280	-0.391057	-0.012642	0.391145	-0.920313	-0.005383	-0.009530	-0.009899	0.999906	
4258														-0.075646	-0.106442	9.810851	-0.920273	-0.391073	-0.012668	0.391161	-0.920306	-0.005390	-0.009550	-0.009916	0.999905	
4259														-0.090443	-0.102864	9.825407	-0.920280	-0.391055	-0.012662	0.391143	-0.920314	-0.005392	-0.009545	-0.009915	0.999905	
4260														-0.072295	-0.093751	9.826369	-0.920274	-0.391071	-0.012643	0.391160	-0.920307	-0.005389	-0.009528	-0.009905	0.999906	
4261														-0.072781	-0.093833	9.826364	-0.920282	-0.391052	-0.012656	0.391140	-0.920315	-0.005379	-0.009544	-0.009900	0.999905	
4262														-0.078030	-0.107868	9.825449	-0.920274	-0.391070	-0.012666	0.391158	-0.920308	-0.005383	-0.009552	-0.009908	0.999905	
4263														-0.102093	-0.085874	9.840851	-0.920282	-0.391051	-0.012687	0.391140	-0.920315	-0.005406	-0.009562	-0.009937	0.999905	
4264														-0.078706	-0.107502	9.810815	-0.920283	-0.391049	-0.012656	0.391137	-0.920317	-0.005385	-0.009542	-0.009906	0.999905	
4265														-0.088786	-0.089909	9.826281	-0.920276	-0.391065	-0.012681	0.391153	-0.920310	-0.005392	-0.009562	-0.009923	0.999905	
4266														-0.075484	-0.094900	9.826334	-0.920261	-0.391099	-0.012689	0.391188	-0.920295	-0.005411	-0.009561	-0.009943	0.999905	
4267														-0.062389	-0.100546	9.841011	-0.920269	-0.391080	-0.012672	0.391169	-0.920303	-0.005394	-0.009553	-0.009921	0.999905	
4268														-0.068853	-0.095747	9.836255	-0.920270	-0.391079	-0.012665	0.391168	-0.920304	-0.005402	-0.009543	-0.009926	0.999905	
4269														-0.072085	-0.093347	9.833876	-0.920270	-0.391078	-0.012662	0.391167	-0.920304	-0.005406	-0.009539	-0.009928	0.999905	
4270														-0.075317	-0.090948	9.831498	-0.920271	-0.391078	-0.012659	0.391166	-0.920304	-0.005410	-0.009534	-0.009930	0.999905	
4271														-0.082360	-0.109583	9.825394	-0.920271	-0.391076	-0.012679	0.391165	-0.920305	-0.005420	-0.009549	-0.009947	0.999905	
4272														-0.092559	-0.092077	9.840857	-0.920272	-0.391074	-0.012677	0.391163	-0.920306	-0.005405	-0.009553	-0.009933	0.999905	
4273														-0.092690	-0.091312	9.826232	-0.920280	-0.391056	-0.012672	0.391145	-0.920313	-0.005407	-0.009548	-0.009933	0.999905	
4274														-0.065002	-0.099935	9.811739	-0.920288	-0.391037	-0.012667	0.391125	-0.920321	-0.005408	-0.009542	-0.009932	0.999905	
4275														-0.083816	-0.109248	9.810754	-0.920281	-0.391054	-0.012629	0.391142	-0.920314	-0.005417	-0.009504	-0.009925	0.999906	
4276														-0.079857	-0.096395	9.826285	-0.920289	-0.391035	-0.012638	0.391124	-0.920322	-0.005422	-0.009511	-0.009933	0.999905	
4277														-0.103417	-0.073347	9.827061	-0.920282	-0.391052	-0.012619	0.391140	-0.920315	-0.005419	-0.009494	-0.009923	0.999906	
4278														-0.067004	-0.102230	9.840963	-0.920290	-0.391035	-0.012592	0.391123	-0.920322	-0.005447	-0.009459	-0.009938	0.999906	
4279														-0.080745	-0.096789	9.826274	-0.920299	-0.391015	-0.012560	0.391103	-0.920331	-0.005427	-0.009438	-0.009907	0.999906	
4280														-0.080557	-0.095115	9.797030	-0.920299	-0.391013	-0.012589	0.391101	-0.920332	-0.005420	-0.009467	-0.009911	0.999906	
4281														-0.081879	-0.096981	9.826262	-0.920307	-0.390996	-0.012583	0.391084	-0.920339	-0.005421	-0.009461	-0.009910	0.999906	
4282														-0.087078	-0.110966	9.825338	-0.920322	-0.390959	-0.012596	0.391047	-0.920355	-0.005411	-0.009477	-0.009906	0.999906	
4283														-0.068978	-0.101923	9.826322	-0.920315	-0.390976	-0.012573	0.391064	-0.920347	-0.005424	-0.009451	-0.009908	0.999906	
4284														-0.078541	-0.083554	9.827166	-0.920316	-0.390975	-0.012568	0.391063	-0.920348	-0.005424	-0.009446	-0.009907	0.999906	
4285														-0.069440	-0.101318	9.811695	-0.920324	-0.390956	-0.012566	0.391044	-0.920356	-0.005411	-0.009450	-0.009894	0.999906	
4286														-0.084047	-0.097488	9.826239	-0.920324	-0.390955	-0.012531	0.391043	-0.920357	-0.005405	-0.009420	-0.009875	0.999907	
4287														-0.080448	-0.085490	9.856393	-0.920325	-0.390954	-0.012538	0.391042	-0.920357	-0.005424	-0.009419	-0.009895	0.999907	
4288														-0.070991	-0.102406	9.826303	-0.920318	-0.390971	-0.012525	0.391058	-0.920350	-0.005392	-0.009420	-0.009861	0.999907	
4289														-0.066919	-0.088615	9.827219	-0.920326	-0.390952	-0.012550	0.391039	-0.920358	-0.005400	-0.009439	-0.009877	0.999907	
4290														-0.100255	-0.094093	9.840762	-0.920326	-0.390951	-0.012533	0.391038	-0.920359	-0.005383	-0.009430	-0.009855	0.999907	
4291														-0.072614	-0.102681	9.826288	-0.920327	-0.390949	-0.012543	0.391037	-0.920359	-0.005387	-0.009438	-0.009863	0.999907	
4292														-0.087258	-0.099056	9.840826	-0.920335	-0.390931	-0.012519	0.391018	-0.920367	-0.005400	-0.009411	-0.009865	0.999907	
4293														-0.082501	-0.084469	9.827126	-0.920336	-0.390930	-0.012500	0.391017	-0.920368	-0.005398	-0.009394	-0.009855	0.999907	
4294														-0.073361	-0.102297	9.811656	-0.920336	-0.390929	-0.012509	0.391016	-0.920368	-0.005402	-0.009401	-0.009863	0.999907	
4295														-0.083462	-0.084903	9.827114	-0.920336	-0.390928	-0.012516	0.391015	-0.920368	-0.005421	-0.009400	-0.009883	0.999907	
4296														-0.074403	-0.102879	9.811642	-0.920329	-0.390945	-0.012526	0.391032	-0.920361	-0.005425	-0.009408	-0.009891	0.999907	
4297														-0.089156	-0.099234	9.826177	-0.920337	-0.390926	-0.012521	0.391014	-0.920369	-0.005427	-0.009403	-0.009890	0.999907	
4298														-0.056307	-0.093101	9.798018	-0.920330	-0.390943	-0.012487	0.391030	-0.920362	-0.005420	-0.009373	-0.009871	0.999907	
4299														-0.085516	-0.086447	9.841713	-0.920330	-0.390942	-0.012493	0.391030	-0.920362	-0.005440	-0.009372	-0.009892	0.999907	
4300														-0.090277	-0.099696	9.826162	-0.920324	-0.390958	-0.012489	0.391045	-0.920355	-0.005440	-0.009367	-0.009890	0.999907	
4301														-0.072232	-0.090715	9.827162	-0.920324	-0.390957	-0.012499	0.391044	-0.920356	-0.005444	-0.009375	-0.009898	0.999907	
4302														-0.092078	-0.101711	9.855386	-0.920318	-0.390972	-0.012498	0.391060	-0.920349	-0.005430	-0.009380	-0.009885	0.999907	
4303														-0.091863	-0.100027	9.826144	-0.920318	-0.390971	-0.012496	0.391058	-0.920350	-0.005416	-0.009384	-0.009871	0.999907	
4304														-0.074228	-0.091842	9.841766	-0.920341	-0.390918	-0.012505	0.391005	-0.920373	-0.005422	-0.009390	-0.009879	0.999907	
4305														-0.088245	-0.086594	9.827058	-0.920341	-0.390917	-0.012512	0.391004	-0.920373	-0.005441	-0.009389	-0.009899	0.999907	
4306														-0.079467	-0.105174	9.826209	-0.920349	-0.390898	-0.012483	0.390985	-0.920381	-0.005406	-0.009376	-0.009856	0.999907	
4307														-0.075155	-0.091318	9.827135	-0.920342	-0.390914	-0.012475	0.391001	-0.920374	-0.005421	-0.009363	-0.009867	0.999907	
4308														-0.062115	-0.097111	9.841832	-0.920350	-0.390896	-0.012485	0.390983	-0.920382	-0.005426	-0.009370	-0.009875	0.999907	
4309														-0.094626	-0.100972	9.826108	-0.920351	-0.390895	-0.012477	0.390982	-0.920382	-0.005442	-0.009356	-0.009886	0.999907	
4310														-0.081633	-0.106705	9.840805	-0.920351	-0.390894	-0.012490	0.390981	-0.920383	-0.005431	-0.009373	-0.009882	0.999907	
4311														-0.081888	-0.105855	9.826182	-0.920352	-0.390892	-0.012492	0.390979	-0.920384	-0.005402	-0.009386	-0.009856	0.999907	
4312														-0.077797	-0.092072	9.827107	-0.920359	-0.390875	-0.012501	0.390962	-0.920391	-0.005407	-0.009393	-0.009864	0.999907	
4313														-0.077536	-0.090550	9.797864	-0.920352	-0.390891	-0.012497	0.390978	-0.920384	-0.005408	-0.009388	-0.009863	0.999907	
4314														-0.088141	-0.120309	9.825230	-0.920359	-0.390874	-0.012515	0.390961	-0.920391	-0.005446	-0.009390	-0.009905	0.999907	
4315														-0.078834	-0.091900	9.812471	-0.920360	-0.390872	-0.012486	0.390959	-0.920392	-0.005410	-0.009378	-0.009861	0.999907	
4316														-0.093516	-0.088095	9.826996	-0.920361	-0.390871	-0.012493	0.390958	-0.920392	-0.005430	-0.009376	-0.009882	0.999907	
4317														-0.085169	-0.107745	9.840764	-0.920369	-0.390852	-0.012488	0.390939	-0.920400	-0.005431	-0.009371	-0.009880	0.999907	
4318														-0.061981	-0.084039	9.828099	-0.920369	-0.390851	-0.012483	0.390938	-0.920401	-0.005432	-0.009366	-0.009879	0.999907	
4319														-0.067941	-0.099786	9.856397	-0.920377	-0.390833	-0.012492	0.390920	-0.920408	-0.005437	-0.009373	-0.009887	0.999907	
4320														-0.063698	-0.086083	9.857327	-0.920370	-0.390849	-0.012473	0.390936	-0.920402	-0.005434	-0.009357	-0.009877	0.999907	
4321														-0.067977	-0.098213	9.827153	-0.920371	-0.390848	-0.012457	0.390934	-0.920403	-0.005417	-0.009348	-0.009855	0.999908	
4322														-0.082764	-0.094388	9.841674	-0.920386	-0.390812	-0.012469	0.390899	-0.920418	-0.005407	-0.009364	-0.009850	0.999908	
4323														-0.078594	-0.080835	9.842603	-0.920379	-0.390829	-0.012473	0.390917	-0.920410	-0.005441	-0.009354	-0.009883	0.999907	
4324														-0.101875	-0.103272	9.826011	-0.920372	-0.390846	-0.012468	0.390933	-0.920403	-0.005441	-0.009349	-0.009882	0.999907	
4325														-0.088450	-0.108119	9.826100	-0.920365	-0.390862	-0.012463	0.390949	-0.920396	-0.005442	-0.009344	-0.009881	0.999908	
4326														-0.070210	-0.099036	9.827129	-0.920365	-0.390862	-0.012429	0.390949	-0.920396	-0.005436	-0.009314	-0.009862	0.999908	
4327														-0.065835	-0.085248	9.828064	-0.920380	-0.390828	-0.012423	0.390914	-0.920411	-0.005438	-0.009309	-0.009861	0.999908	
4328														-0.089322	-0.107647	9.811466	-0.920373	-0.390844	-0.012463	0.390931	-0.920404	-0.005449	-0.009341	-0.009887	0.999907	
4329														-0.071773	-0.099644	9.827112	-0.920396	-0.390790	-0.012457	0.390877	-0.920427	-0.005451	-0.009335	-0.009886	0.999908	
4330														-0.085793	-0.094203	9.812391	-0.920381	-0.390823	-0.012471	0.390910	-0.920413	-0.005439	-0.009352	-0.009881	0.999907	
4331														-0.086050	-0.093452	9.797766	-0.920389	-0.390804	-0.012483	0.390891	-0.920421	-0.005429	-0.009368	-0.009876	0.999907	
4332														-0.083087	-0.082310	9.842554	-0.920390	-0.390802	-0.012479	0.390889	-0.920422	-0.005430	-0.009364	-0.009875	0.999907	
4333														-0.085590	-0.088879	9.834771	-0.920391	-0.390801	-0.012477	0.390888	-0.920422	-0.005423	-0.009364	-0.009868	0.999907	
4334														-0.088094	-0.095448	9.826988	-0.920391	-0.390799	-0.012475	0.390886	-0.920423	-0.005416	-0.009365	-0.009861	0.999908	
4335														-0.056763	-0.092046	9.842742	-0.920392	-0.390797	-0.012468	0.390884	-0.920424	-0.005417	-0.009358	-0.009859	0.999908	
4336														-0.075415	-0.100399	9.827077	-0.920408	-0.390760	-0.012465	0.390846	-0.920440	-0.005404	-0.009362	-0.009846	0.999908	
4337														-0.089264	-0.094924	9.812353	-0.920394	-0.390794	-0.012443	0.390880	-0.920426	-0.005416	-0.009336	-0.009848	0.999908	
4338														-0.076640	-0.101502	9.841686	-0.920409	-0.390758	-0.012455	0.390845	-0.920441	-0.005406	-0.009352	-0.009844	0.999908	
4339														-0.062872	-0.105549	9.827166	-0.920409	-0.390758	-0.012447	0.390845	-0.920441	-0.005422	-0.009338	-0.009855	0.999908	
4340														-0.091009	-0.096315	9.826953	-0.920395	-0.390792	-0.012443	0.390879	-0.920426	-0.005422	-0.009334	-0.009854	0.999908	
4341														-0.072991	-0.087318	9.827995	-0.920388	-0.390808	-0.012457	0.390895	-0.920420	-0.005411	-0.009351	-0.009849	0.999908	
4342														-0.077796	-0.100485	9.812428	-0.920389	-0.390806	-0.012448	0.390893	-0.920420	-0.005427	-0.009337	-0.009860	0.999908	
4343														-0.092932	-0.097732	9.841551	-0.920382	-0.390822	-0.012459	0.390909	-0.920413	-0.005430	-0.009345	-0.009868	0.999908	
4344														-0.078699	-0.100875	9.812416	-0.920390	-0.390804	-0.012439	0.390891	-0.920421	-0.005428	-0.009328	-0.009858	0.999908	
4345														-0.083785	-0.114814	9.811467	-0.920382	-0.390822	-0.012435	0.390908	-0.920414	-0.005429	-0.009323	-0.009857	0.999908	
4346														-0.078709	-0.099395	9.783172	-0.920390	-0.390804	-0.012429	0.390891	-0.920421	-0.005430	-0.009318	-0.009857	0.999908	
4347														-0.094790	-0.098181	9.841529	-0.920391	-0.390802	-0.012446	0.390889	-0.920422	-0.005405	-0.009343	-0.009840	0.999908	
4348														-0.066819	-0.105867	9.812507	-0.920384	-0.390819	-0.012430	0.390905	-0.920415	-0.005387	-0.009335	-0.009817	0.999908	
4349														-0.086637	-0.116741	9.840681	-0.920384	-0.390818	-0.012425	0.390905	-0.920415	-0.005388	-0.009330	-0.009816	0.999908	
4350														-0.072851	-0.120688	9.826169	-0.920384	-0.390817	-0.012424	0.390903	-0.920416	-0.005375	-0.009334	-0.009803	0.999908	
4351														-0.068567	-0.106889	9.827113	-0.920385	-0.390817	-0.012404	0.390902	-0.920416	-0.005372	-0.009317	-0.009793	0.999909	
4352														-0.083196	-0.103290	9.841614	-0.920392	-0.390800	-0.012407	0.390886	-0.920423	-0.005407	-0.009306	-0.009826	0.999908	
4353														-0.083183	-0.102632	9.826991	-0.920393	-0.390798	-0.012390	0.390884	-0.920424	-0.005390	-0.009298	-0.009804	0.999909	
4354														-0.074130	-0.120254	9.811534	-0.920401	-0.390779	-0.012392	0.390865	-0.920433	-0.005362	-0.009310	-0.009778	0.999909	
4355														-0.093330	-0.084064	9.827819	-0.920394	-0.390795	-0.012384	0.390881	-0.920426	-0.005377	-0.009297	-0.009790	0.999909	
4356														-0.079699	-0.088973	9.827928	-0.920403	-0.390777	-0.012345	0.390862	-0.920433	-0.005387	-0.009258	-0.009783	0.999909	
4357														-0.080433	-0.089891	9.842542	-0.920396	-0.390792	-0.012344	0.390878	-0.920427	-0.005372	-0.009262	-0.009770	0.999909	
4358														-0.075969	-0.121533	9.826135	-0.920404	-0.390775	-0.012321	0.390860	-0.920435	-0.005386	-0.009236	-0.009773	0.999910	
4359														-0.081153	-0.090151	9.842534	-0.920397	-0.390790	-0.012316	0.390875	-0.920428	-0.005386	-0.009232	-0.009772	0.999910	
4360														-0.090969	-0.117922	9.840628	-0.920405	-0.390773	-0.012296	0.390858	-0.920435	-0.005384	-0.009214	-0.009762	0.999910	
4361														-0.072058	-0.107283	9.812454	-0.920412	-0.390755	-0.012321	0.390840	-0.920443	-0.005393	-0.009234	-0.009779	0.999910	
4362														-0.081343	-0.088081	9.798666	-0.920420	-0.390737	-0.012316	0.390822	-0.920451	-0.005394	-0.009228	-0.009778	0.999910	
4363														-0.073183	-0.107746	9.812441	-0.920413	-0.390754	-0.012341	0.390839	-0.920443	-0.005401	-0.009249	-0.009795	0.999909	
4364														-0.069404	-0.095066	9.828004	-0.920272	-0.391084	-0.012347	0.391170	-0.920302	-0.005528	-0.009201	-0.009917	0.999908	
4365														-0.070221	-0.096136	9.842616	-0.920279	-0.391067	-0.012342	0.391154	-0.920309	-0.005530	-0.009196	-0.009916	0.999909	
4366														-0.074964	-0.109250	9.827040	-0.920280	-0.391067	-0.012337	0.391153	-0.920309	-0.005531	-0.009191	-0.009916	0.999909	
4367														-0.084524	-0.090716	9.827872	-0.920288	-0.391047	-0.012321	0.391133	-0.920317	-0.005514	-0.009183	-0.009894	0.999909	
4368														-0.090240	-0.105374	9.841530	-0.920296	-0.391027	-0.012337	0.391113	-0.920326	-0.005489	-0.009208	-0.009877	0.999909	
4369														-0.086142	-0.091816	9.842476	-0.920290	-0.391041	-0.012356	0.391128	-0.920320	-0.005527	-0.009211	-0.009919	0.999908	
4370														-0.091031	-0.105116	9.826895	-0.920275	-0.391077	-0.012371	0.391164	-0.920305	-0.005515	-0.009228	-0.009914	0.999908	
4371														-0.059153	-0.101001	9.828088	-0.920289	-0.391044	-0.012377	0.391131	-0.920319	-0.005535	-0.009226	-0.009935	0.999908	
4372														-0.091992	-0.105551	9.826882	-0.920290	-0.391042	-0.012358	0.391129	-0.920319	-0.005533	-0.009209	-0.009926	0.999908	
4373														-0.073849	-0.096607	9.827956	-0.920290	-0.391041	-0.012368	0.391128	-0.920320	-0.005538	-0.009217	-0.009934	0.999908	
4374														-0.088620	-0.092810	9.842445	-0.920290	-0.391042	-0.012352	0.391128	-0.920320	-0.005520	-0.009209	-0.009911	0.999908	
4375														-0.080563	-0.091122	9.831780	-0.920294	-0.391033	-0.012357	0.391119	-0.920323	-0.005516	-0.009216	-0.009909	0.999908	
4376														-0.072505	-0.089435	9.821116	-0.920298	-0.391024	-0.012363	0.391110	-0.920327	-0.005511	-0.009223	-0.009907	0.999908	
4377														-0.080185	-0.110155	9.812359	-0.920304	-0.391009	-0.012379	0.391096	-0.920333	-0.005549	-0.009223	-0.009948	0.999908	
4378														-0.090545	-0.093680	9.842419	-0.920290	-0.391042	-0.012357	0.391129	-0.920319	-0.005561	-0.009197	-0.009951	0.999908	
4379														-0.090374	-0.092824	9.827800	-0.920305	-0.391008	-0.012325	0.391094	-0.920334	-0.005542	-0.009176	-0.009920	0.999909	
4380														-0.095038	-0.105781	9.812220	-0.920298	-0.391025	-0.012321	0.391112	-0.920327	-0.005542	-0.009172	-0.009919	0.999909	
4381														-0.078184	-0.099449	9.857151	-0.920313	-0.390989	-0.012316	0.391076	-0.920342	-0.005544	-0.009167	-0.009919	0.999909	
4382														-0.063576	-0.101727	9.813425	-0.920313	-0.390988	-0.012329	0.391075	-0.920342	-0.005534	-0.009183	-0.009914	0.999909	
4383														-0.078499	-0.097845	9.827908	-0.920314	-0.390986	-0.012331	0.391072	-0.920344	-0.005505	-0.009196	-0.009889	0.999909	
4384														-0.092421	-0.092410	9.813156	-0.920321	-0.390969	-0.012335	0.391055	-0.920350	-0.005540	-0.009186	-0.009922	0.999909	
4385														-0.070265	-0.116716	9.827066	-0.920316	-0.390983	-0.012307	0.391069	-0.920345	-0.005504	-0.009175	-0.009879	0.999909	
4386														-0.080122	-0.098951	9.842512	-0.920316	-0.390982	-0.012285	0.391068	-0.920345	-0.005517	-0.009149	-0.009882	0.999909	
4387														-0.061535	-0.089157	9.828985	-0.920324	-0.390964	-0.012298	0.391050	-0.920353	-0.005507	-0.009165	-0.009877	0.999909	
4388														-0.080586	-0.098476	9.827885	-0.920324	-0.390965	-0.012287	0.391051	-0.920352	-0.005538	-0.009143	-0.009902	0.999909	
4389														-0.099578	-0.107748	9.826784	-0.920324	-0.390963	-0.012286	0.391049	-0.920353	-0.005524	-0.009147	-0.009889	0.999909	
4390														-0.077186	-0.085910	9.843454	-0.920324	-0.390964	-0.012293	0.391050	-0.920353	-0.005544	-0.009146	-0.009909	0.999909	
4391														-0.081716	-0.098211	9.813250	-0.920331	-0.390946	-0.012324	0.391032	-0.920360	-0.005522	-0.009184	-0.009901	0.999909	
4392														-0.068489	-0.103246	9.813376	-0.920324	-0.390963	-0.012328	0.391050	-0.920353	-0.005556	-0.009174	-0.009934	0.999909	
4393														-0.083604	-0.100324	9.842469	-0.920332	-0.390944	-0.012300	0.391030	-0.920361	-0.005521	-0.009162	-0.009891	0.999909	
4394														-0.083164	-0.098727	9.813232	-0.920324	-0.390963	-0.012319	0.391049	-0.920353	-0.005558	-0.009165	-0.009932	0.999909	
4395														-0.065426	-0.090844	9.828944	-0.920332	-0.390944	-0.012299	0.391031	-0.920361	-0.005557	-0.009147	-0.009923	0.999909	
4396														-0.083977	-0.099239	9.813220	-0.920332	-0.390944	-0.012306	0.391031	-0.920361	-0.005576	-0.009146	-0.009944	0.999909	
4397														-0.098838	-0.095575	9.827692	-0.920325	-0.390960	-0.012321	0.391046	-0.920354	-0.005565	-0.009164	-0.009940	0.999909	
4398														-0.080832	-0.086580	9.828792	-0.920326	-0.390959	-0.012319	0.391045	-0.920355	-0.005551	-0.009168	-0.009926	0.999909	
4399														-0.081931	-0.087559	9.843401	-0.920319	-0.390974	-0.012348	0.391061	-0.920348	-0.005544	-0.009197	-0.009931	0.999908	
4400														-0.082067	-0.087022	9.828778	-0.920326	-0.390958	-0.012352	0.391045	-0.920355	-0.005578	-0.009187	-0.009964	0.999908	
4401														-0.101545	-0.097364	9.842276	-0.920325	-0.390958	-0.012359	0.391046	-0.920354	-0.005598	-0.009186	-0.009984	0.999908	
4402														-0.087813	-0.101490	9.827792	-0.920325	-0.390958	-0.012373	0.391045	-0.920354	-0.005587	-0.009203	-0.009980	0.999908	
4403														-0.083594	-0.087687	9.828759	-0.920319	-0.390975	-0.012357	0.391062	-0.920348	-0.005569	-0.009195	-0.009958	0.999908	
4404														-0.088754	-0.101443	9.827784	-0.920319	-0.390973	-0.012341	0.391060	-0.920349	-0.005552	-0.009187	-0.009936	0.999908	
4405														-0.074864	-0.105274	9.813308	-0.920313	-0.390989	-0.012325	0.391076	-0.920342	-0.005534	-0.009180	-0.009913	0.999909	
4406														-0.084385	-0.086719	9.814134	-0.920320	-0.390971	-0.012321	0.391058	-0.920349	-0.005536	-0.009175	-0.009913	0.999909	
4407														-0.085775	-0.088546	9.843360	-0.920306	-0.391005	-0.012320	0.391091	-0.920335	-0.005521	-0.009180	-0.009900	0.999909	
4408														-0.090086	-0.100869	9.813150	-0.920313	-0.390988	-0.012323	0.391074	-0.920342	-0.005556	-0.009169	-0.009932	0.999909	
4409														-0.091042	-0.101928	9.827758	-0.920307	-0.391003	-0.012326	0.391090	-0.920336	-0.005527	-0.009183	-0.009907	0.999909	
4410														-0.072882	-0.093025	9.828871	-0.920314	-0.390987	-0.012314	0.391073	-0.920343	-0.005558	-0.009160	-0.009931	0.999909	
4411														-0.091430	-0.101401	9.813132	-0.920307	-0.391003	-0.012313	0.391090	-0.920336	-0.005544	-0.009164	-0.009918	0.999909	
4412														-0.072858	-0.091563	9.799632	-0.920307	-0.391002	-0.012309	0.391089	-0.920336	-0.005545	-0.009160	-0.009917	0.999909	
4413														-0.093165	-0.103390	9.842352	-0.920315	-0.390985	-0.012286	0.391071	-0.920344	-0.005558	-0.009134	-0.009920	0.999909	
4414														-0.074440	-0.093635	9.828854	-0.920316	-0.390983	-0.012282	0.391069	-0.920345	-0.005559	-0.009130	-0.009919	0.999909	
4415														-0.079077	-0.106742	9.813259	-0.920331	-0.390947	-0.012258	0.391033	-0.920360	-0.005573	-0.009103	-0.009923	0.999909	
4416														-0.093884	-0.103024	9.827720	-0.920317	-0.390980	-0.012288	0.391067	-0.920346	-0.005565	-0.009133	-0.009927	0.999909	
4417														-0.080205	-0.107202	9.813245	-0.920332	-0.390946	-0.012294	0.391033	-0.920360	-0.005585	-0.009132	-0.009947	0.999909	
4418														-0.076805	-0.095278	9.843447	-0.920317	-0.390980	-0.012279	0.391066	-0.920346	-0.005566	-0.009125	-0.009925	0.999909	
4419														-0.067794	-0.113023	9.828000	-0.920325	-0.390961	-0.012293	0.391048	-0.920354	-0.005556	-0.009141	-0.009921	0.999909	
4420														-0.077420	-0.094551	9.828822	-0.920333	-0.390944	-0.012288	0.391030	-0.920361	-0.005558	-0.009136	-0.009920	0.999909	
4421														-0.068781	-0.113296	9.827990	-0.920333	-0.390944	-0.012283	0.391030	-0.920361	-0.005559	-0.009132	-0.009919	0.999909	
4422														-0.082692	-0.107658	9.813219	-0.920333	-0.390942	-0.012285	0.391028	-0.920362	-0.005530	-0.009145	-0.009894	0.999909	
4423														-0.070363	-0.114261	9.842596	-0.920349	-0.390906	-0.012295	0.390992	-0.920378	-0.005535	-0.009152	-0.009902	0.999909	
4424														-0.079182	-0.094119	9.814185	-0.920334	-0.390940	-0.012325	0.391026	-0.920363	-0.005527	-0.009182	-0.009906	0.999909	
4425														-0.084526	-0.107894	9.813201	-0.920327	-0.390956	-0.012297	0.391042	-0.920356	-0.005492	-0.009171	-0.009863	0.999909	
4426														-0.081221	-0.095851	9.843406	-0.920335	-0.390938	-0.012323	0.391024	-0.920364	-0.005500	-0.009191	-0.009880	0.999909	
4427														-0.080952	-0.094312	9.814169	-0.920343	-0.390919	-0.012336	0.391005	-0.920372	-0.005489	-0.009208	-0.009876	0.999909	
4428														-0.081453	-0.094499	9.814163	-0.920342	-0.390919	-0.012328	0.391005	-0.920372	-0.005505	-0.009195	-0.009887	0.999909	
4429														-0.087195	-0.109378	9.827790	-0.920343	-0.390917	-0.012342	0.391003	-0.920373	-0.005495	-0.009212	-0.009883	0.999909	
4430														-0.082457	-0.094873	9.814151	-0.920351	-0.390898	-0.012334	0.390985	-0.920381	-0.005511	-0.009198	-0.009895	0.999909	
4431														-0.068969	-0.099931	9.814303	-0.920351	-0.390898	-0.012327	0.390985	-0.920381	-0.005527	-0.009185	-0.009907	0.999909	
4432														-0.079548	-0.083309	9.844351	-0.920337	-0.390932	-0.012357	0.391018	-0.920366	-0.005519	-0.009215	-0.009911	0.999908	
4433														-0.079805	-0.094610	9.836341	-0.920337	-0.390931	-0.012350	0.391017	-0.920367	-0.005534	-0.009203	-0.009923	0.999908	
4434														-0.080061	-0.105911	9.828330	-0.920338	-0.390930	-0.012343	0.391017	-0.920367	-0.005550	-0.009190	-0.009934	0.999908	
4435														-0.076106	-0.115552	9.827909	-0.920338	-0.390929	-0.012337	0.391016	-0.920367	-0.005552	-0.009184	-0.009933	0.999908	
4436														-0.085139	-0.096208	9.814115	-0.920346	-0.390911	-0.012332	0.390998	-0.920375	-0.005554	-0.009179	-0.009933	0.999909	
4437														-0.085149	-0.095411	9.799496	-0.920338	-0.390928	-0.012331	0.391015	-0.920368	-0.005540	-0.009184	-0.009920	0.999909	
4438														-0.067955	-0.088130	9.829869	-0.920332	-0.390944	-0.012315	0.391030	-0.920361	-0.005521	-0.009176	-0.009897	0.999909	
4439														-0.100483	-0.091593	9.813938	-0.920332	-0.390943	-0.012341	0.391030	-0.920361	-0.005529	-0.009196	-0.009914	0.999909	
4440														-0.074157	-0.103152	9.843486	-0.920333	-0.390942	-0.012303	0.391028	-0.920362	-0.005538	-0.009158	-0.009908	0.999909	
4441														-0.069074	-0.088596	9.829857	-0.920333	-0.390942	-0.012281	0.391028	-0.920362	-0.005551	-0.009133	-0.009911	0.999909	
4442														-0.074209	-0.102674	9.828864	-0.920332	-0.390944	-0.012289	0.391031	-0.920361	-0.005570	-0.009133	-0.009932	0.999909	
4443														-0.069996	-0.089092	9.829846	-0.920325	-0.390962	-0.012303	0.391048	-0.920353	-0.005559	-0.009150	-0.009927	0.999909	
4444														-0.074887	-0.102088	9.814238	-0.920332	-0.390945	-0.012301	0.391031	-0.920361	-0.005546	-0.009154	-0.009914	0.999909	
4445														-0.071009	-0.089198	9.829837	-0.920333	-0.390944	-0.012282	0.391030	-0.920361	-0.005544	-0.009137	-0.009905	0.999909	
4446														-0.085710	-0.085375	9.844282	-0.920326	-0.390960	-0.012278	0.391047	-0.920354	-0.005544	-0.009133	-0.009904	0.999909	
4447														-0.090307	-0.098526	9.828673	-0.920326	-0.390960	-0.012252	0.391046	-0.920354	-0.005572	-0.009098	-0.009919	0.999909	
4448														-0.090626	-0.098582	9.828670	-0.920335	-0.390940	-0.012240	0.391026	-0.920363	-0.005540	-0.009099	-0.009885	0.999910	
4449														-0.072458	-0.089449	9.829825	-0.920320	-0.390975	-0.012225	0.391060	-0.920349	-0.005522	-0.009092	-0.009862	0.999910	
4450														-0.092005	-0.099478	9.843275	-0.920334	-0.390942	-0.012232	0.391028	-0.920362	-0.005542	-0.009091	-0.009884	0.999910	
4451														-0.059099	-0.093812	9.815368	-0.920327	-0.390958	-0.012243	0.391044	-0.920355	-0.005546	-0.009099	-0.009892	0.999910	
4452														-0.092608	-0.099117	9.828646	-0.920327	-0.390957	-0.012253	0.391043	-0.920356	-0.005550	-0.009108	-0.009900	0.999910	
4453														-0.093112	-0.099303	9.828639	-0.920327	-0.390957	-0.012249	0.391043	-0.920356	-0.005552	-0.009103	-0.009899	0.999910	
4454														-0.079721	-0.104254	9.828804	-0.920321	-0.390973	-0.012245	0.391059	-0.920349	-0.005552	-0.009099	-0.009898	0.999910	
4455														-0.065902	-0.108369	9.814355	-0.920328	-0.390956	-0.012255	0.391042	-0.920356	-0.005557	-0.009107	-0.009907	0.999909	
4456														-0.095094	-0.100640	9.843234	-0.920327	-0.390958	-0.012255	0.391043	-0.920356	-0.005543	-0.009111	-0.009894	0.999910	
4457														-0.076083	-0.089942	9.815167	-0.920328	-0.390956	-0.012268	0.391042	-0.920356	-0.005533	-0.009128	-0.009889	0.999909	
4458														-0.082484	-0.105519	9.843395	-0.920336	-0.390937	-0.012270	0.391023	-0.920365	-0.005504	-0.009141	-0.009864	0.999910	
4459														-0.082049	-0.103880	9.814162	-0.920336	-0.390937	-0.012278	0.391023	-0.920365	-0.005523	-0.009141	-0.009884	0.999909	
4460														-0.082554	-0.104066	9.814155	-0.920328	-0.390955	-0.012277	0.391041	-0.920357	-0.005509	-0.009145	-0.009871	0.999909	
4461														-0.088282	-0.118898	9.827768	-0.920335	-0.390938	-0.012269	0.391024	-0.920364	-0.005525	-0.009132	-0.009882	0.999909	
4462														-0.083885	-0.105298	9.828758	-0.920343	-0.390920	-0.012264	0.391006	-0.920372	-0.005527	-0.009127	-0.009882	0.999910	
4463														-0.070146	-0.109297	9.814315	-0.920350	-0.390903	-0.012281	0.390988	-0.920379	-0.005502	-0.009152	-0.009865	0.999909	
4464														-0.079747	-0.090905	9.815129	-0.920342	-0.390921	-0.012285	0.391007	-0.920371	-0.005535	-0.009143	-0.009898	0.999909	
4465														-0.085420	-0.105694	9.828741	-0.920350	-0.390903	-0.012258	0.390989	-0.920379	-0.005501	-0.009131	-0.009856	0.999910	
4466														-0.080920	-0.091843	9.829737	-0.920365	-0.390868	-0.012234	0.390953	-0.920394	-0.005515	-0.009104	-0.009859	0.999910	
4467														-0.086072	-0.105914	9.828733	-0.920358	-0.390884	-0.012242	0.390970	-0.920387	-0.005534	-0.009104	-0.009879	0.999910	
4468														-0.067409	-0.096292	9.815291	-0.920351	-0.390901	-0.012238	0.390987	-0.920380	-0.005534	-0.009101	-0.009879	0.999910	
4469														-0.087584	-0.107169	9.843333	-0.920351	-0.390901	-0.012252	0.390987	-0.920380	-0.005524	-0.009118	-0.009874	0.999910	
4470														-0.082790	-0.092667	9.829713	-0.920350	-0.390903	-0.012246	0.390989	-0.920379	-0.005540	-0.009105	-0.009887	0.999910	
4471														-0.074762	-0.112367	9.843501	-0.920357	-0.390886	-0.012259	0.390972	-0.920386	-0.005530	-0.009122	-0.009883	0.999910	
4472														-0.102425	-0.102021	9.828519	-0.920357	-0.390887	-0.012252	0.390972	-0.920386	-0.005546	-0.009109	-0.009895	0.999910	
4473														-0.084175	-0.093142	9.829697	-0.920358	-0.390886	-0.012236	0.390972	-0.920386	-0.005529	-0.009101	-0.009873	0.999910	
4474														-0.070372	-0.097103	9.815262	-0.920357	-0.390887	-0.012250	0.390972	-0.920386	-0.005519	-0.009118	-0.009869	0.999910	
4475														-0.084628	-0.092315	9.815075	-0.920351	-0.390903	-0.012217	0.390988	-0.920379	-0.005513	-0.009089	-0.009850	0.999910	
4476														-0.090484	-0.107127	9.828680	-0.920351	-0.390902	-0.012261	0.390987	-0.920380	-0.005508	-0.009131	-0.009863	0.999910	
4477														-0.081585	-0.079676	9.830678	-0.920359	-0.390883	-0.012259	0.390969	-0.920387	-0.005495	-0.009135	-0.009851	0.999910	
4478														-0.086369	-0.092674	9.815057	-0.920360	-0.390881	-0.012255	0.390966	-0.920389	-0.005496	-0.009131	-0.009850	0.999910	
4479														-0.087718	-0.094607	9.844278	-0.920360	-0.390881	-0.012232	0.390966	-0.920389	-0.005509	-0.009105	-0.009852	0.999910	
4480														-0.082385	-0.079115	9.816051	-0.920353	-0.390897	-0.012250	0.390982	-0.920382	-0.005483	-0.009132	-0.009835	0.999910	
