// Start Time: Unknown: 
// Update Rate: 60.0Hz 
// Filter Profile: human (46.1) 
// Firmware Version: 4.6.0
PacketCounter	SampleTimeFine	Year	Month	Day	Second	UTC_Nano	UTC_Year	UTC_Month	UTC_Day	UTC_Hour	UTC_Minute	UTC_Second	UTC_Valid	Acc_X	Acc_Y	Acc_Z	Mat[1][1]	Mat[2][1]	Mat[3][1]	Mat[1][2]	Mat[2][2]	Mat[3][2]	Mat[1][3]	Mat[2][3]	Mat[3][3] 
3598														-0.113687	0.067001	9.755990	-0.936909	0.349417	-0.010472	-0.349467	-0.936943	0.003289	-0.008663	0.006741	0.999940	
3599														-0.068349	0.041966	9.759686	-0.936908	0.349420	-0.010446	-0.349469	-0.936942	0.003260	-0.008648	0.006705	0.999940	
3600														-0.085358	0.069762	9.743087	-0.936912	0.349408	-0.010465	-0.349458	-0.936946	0.003262	-0.008666	0.006713	0.999940	
3601														-0.086863	0.056793	9.772855	-0.936900	0.349441	-0.010462	-0.349490	-0.936934	0.003288	-0.008653	0.006737	0.999940	
3602														-0.105322	0.071590	9.800641	-0.936904	0.349430	-0.010455	-0.349479	-0.936939	0.003268	-0.008654	0.006716	0.999940	
3603														-0.091583	0.073297	9.801500	-0.936909	0.349419	-0.010446	-0.349468	-0.936943	0.003282	-0.008641	0.006726	0.999940	
3604														-0.087436	0.057226	9.743602	-0.936908	0.349422	-0.010425	-0.349471	-0.936942	0.003267	-0.008626	0.006705	0.999940	
3605														-0.092173	0.073628	9.786868	-0.936912	0.349411	-0.010411	-0.349460	-0.936946	0.003267	-0.008613	0.006699	0.999940	
3606														-0.059873	0.060652	9.745331	-0.936916	0.349400	-0.010416	-0.349449	-0.936950	0.003275	-0.008615	0.006708	0.999940	
3607														-0.091435	0.045636	9.787966	-0.936914	0.349403	-0.010427	-0.349453	-0.936948	0.003296	-0.008618	0.006732	0.999940	
3608														-0.077253	0.061180	9.759045	-0.936908	0.349420	-0.010447	-0.349470	-0.936942	0.003297	-0.008636	0.006740	0.999940	
3609														-0.081325	0.077322	9.787692	-0.936922	0.349381	-0.010453	-0.349431	-0.936956	0.003306	-0.008639	0.006750	0.999940	
3610														-0.080456	0.076862	9.758458	-0.936921	0.349384	-0.010466	-0.349434	-0.936955	0.003293	-0.008655	0.006743	0.999940	
3611														-0.082285	0.077784	9.773058	-0.936915	0.349402	-0.010451	-0.349451	-0.936949	0.003292	-0.008642	0.006736	0.999940	
3612														-0.096433	0.062429	9.772731	-0.936913	0.349405	-0.010456	-0.349455	-0.936947	0.003299	-0.008644	0.006745	0.999940	
3613														-0.069132	0.065924	9.789097	-0.936918	0.349394	-0.010450	-0.349443	-0.936952	0.003279	-0.008645	0.006723	0.999940	
3614														-0.076199	0.065158	9.774036	-0.936922	0.349383	-0.010462	-0.349433	-0.936956	0.003283	-0.008655	0.006732	0.999940	
3615														-0.083265	0.064391	9.758975	-0.936925	0.349372	-0.010474	-0.349422	-0.936960	0.003288	-0.008665	0.006741	0.999940	
3616														-0.100441	0.078413	9.757501	-0.936919	0.349389	-0.010454	-0.349439	-0.936954	0.003273	-0.008652	0.006719	0.999940	
3617														-0.086452	0.065971	9.773559	-0.936918	0.349392	-0.010467	-0.349442	-0.936952	0.003260	-0.008668	0.006712	0.999940	
3618														-0.085233	0.051405	9.759508	-0.936922	0.349382	-0.010472	-0.349431	-0.936956	0.003268	-0.008670	0.006721	0.999940	
3619														-0.073701	0.068366	9.774426	-0.936921	0.349385	-0.010464	-0.349435	-0.936955	0.003281	-0.008658	0.006731	0.999940	
3620														-0.089092	0.067508	9.773525	-0.936920	0.349388	-0.010458	-0.349437	-0.936954	0.003260	-0.008659	0.006709	0.999940	
3621														-0.089923	0.068021	9.773513	-0.936918	0.349392	-0.010455	-0.349441	-0.936953	0.003288	-0.008647	0.006734	0.999940	
3622														-0.089818	0.068190	9.758891	-0.936923	0.349380	-0.010460	-0.349430	-0.936957	0.003296	-0.008649	0.006743	0.999940	
3623														-0.089454	0.054196	9.759455	-0.936927	0.349370	-0.010466	-0.349419	-0.936961	0.003304	-0.008652	0.006752	0.999940	
3624														-0.077059	0.070446	9.759765	-0.936926	0.349372	-0.010453	-0.349421	-0.936960	0.003269	-0.008652	0.006716	0.999940	
3625														-0.064192	0.072616	9.775264	-0.936919	0.349390	-0.010431	-0.349439	-0.936953	0.003288	-0.008624	0.006725	0.999940	
3626														-0.108418	0.069367	9.772559	-0.936929	0.349365	-0.010400	-0.349415	-0.936962	0.003328	-0.008581	0.006752	0.999940	
3627														-0.080057	0.072655	9.774345	-0.936922	0.349382	-0.010420	-0.349432	-0.936956	0.003329	-0.008600	0.006760	0.999940	
3628														-0.080022	0.072815	9.759724	-0.936921	0.349386	-0.010417	-0.349436	-0.936954	0.003357	-0.008587	0.006785	0.999940	
3629														-0.095008	0.057935	9.774002	-0.936920	0.349389	-0.010396	-0.349439	-0.936953	0.003342	-0.008573	0.006764	0.999940	
3630														-0.096160	0.072303	9.758801	-0.936914	0.349406	-0.010390	-0.349455	-0.936947	0.003321	-0.008574	0.006742	0.999941	
3631														-0.083459	0.074627	9.774302	-0.936907	0.349424	-0.010401	-0.349473	-0.936940	0.003342	-0.008577	0.006766	0.999940	
3632														-0.084291	0.075141	9.774291	-0.936912	0.349412	-0.010380	-0.349462	-0.936945	0.003328	-0.008563	0.006745	0.999941	
3633														-0.083900	0.060928	9.774865	-0.936921	0.349386	-0.010394	-0.349436	-0.936955	0.003316	-0.008580	0.006739	0.999940	
3634														-0.084722	0.061298	9.774856	-0.936926	0.349375	-0.010359	-0.349424	-0.936959	0.003308	-0.008550	0.006720	0.999941	
3635														-0.099075	0.059913	9.759329	-0.936925	0.349378	-0.010365	-0.349427	-0.936958	0.003316	-0.008553	0.006729	0.999941	
3636														-0.070864	0.063151	9.761137	-0.936918	0.349396	-0.010371	-0.349445	-0.936951	0.003323	-0.008556	0.006737	0.999941	
3637														-0.087626	0.076983	9.759626	-0.936917	0.349399	-0.010376	-0.349448	-0.936950	0.003330	-0.008558	0.006746	0.999941	
3638														-0.072672	0.064171	9.761117	-0.936916	0.349402	-0.010369	-0.349451	-0.936949	0.003309	-0.008559	0.006724	0.999941	
3639														-0.087238	0.062614	9.745585	-0.936904	0.349433	-0.010377	-0.349482	-0.936937	0.003281	-0.008576	0.006701	0.999941	
3640														-0.087875	0.048894	9.760773	-0.936903	0.349436	-0.010376	-0.349485	-0.936936	0.003274	-0.008577	0.006694	0.999941	
3641														-0.076893	0.079820	9.760496	-0.936901	0.349439	-0.010390	-0.349488	-0.936935	0.003262	-0.008595	0.006687	0.999941	
3642														-0.107880	0.078085	9.773256	-0.936900	0.349443	-0.010375	-0.349491	-0.936934	0.003261	-0.008581	0.006681	0.999941	
3643														-0.063805	0.067962	9.776595	-0.936899	0.349446	-0.010389	-0.349494	-0.936933	0.003248	-0.008598	0.006674	0.999941	
3644														-0.094712	0.066077	9.789353	-0.936899	0.349444	-0.010430	-0.349493	-0.936933	0.003219	-0.008648	0.006661	0.999940	
3645														-0.093108	0.051362	9.775331	-0.936898	0.349448	-0.010422	-0.349497	-0.936932	0.003232	-0.008635	0.006671	0.999940	
3646														-0.109730	0.065110	9.773803	-0.936897	0.349451	-0.010407	-0.349499	-0.936931	0.003232	-0.008622	0.006665	0.999941	
3647														-0.082340	0.068680	9.790247	-0.936896	0.349453	-0.010387	-0.349501	-0.936930	0.003217	-0.008608	0.006644	0.999941	
3648														-0.080805	0.054039	9.776227	-0.936901	0.349441	-0.010379	-0.349489	-0.936935	0.003231	-0.008595	0.006655	0.999941	
3649														-0.081749	0.068632	9.761015	-0.936900	0.349444	-0.010336	-0.349492	-0.936934	0.003243	-0.008551	0.006650	0.999941	
3650														-0.082092	0.055085	9.776210	-0.936894	0.349462	-0.010342	-0.349510	-0.936927	0.003250	-0.008554	0.006659	0.999941	
3651														-0.082166	0.055077	9.761592	-0.936897	0.349453	-0.010370	-0.349501	-0.936930	0.003231	-0.008587	0.006651	0.999941	
3652														-0.071945	0.072539	9.791123	-0.936890	0.349470	-0.010376	-0.349519	-0.936924	0.003237	-0.008591	0.006660	0.999941	
3653														-0.101968	0.070406	9.789250	-0.936888	0.349474	-0.010382	-0.349523	-0.936922	0.003245	-0.008593	0.006669	0.999941	
3654														-0.098451	0.054807	9.746021	-0.936893	0.349463	-0.010354	-0.349512	-0.936926	0.003250	-0.008565	0.006664	0.999941	
3655														-0.071345	0.072628	9.747274	-0.936892	0.349467	-0.010345	-0.349515	-0.936925	0.003264	-0.008552	0.006674	0.999941	
3656														-0.074790	0.060626	9.806293	-0.936890	0.349471	-0.010345	-0.349519	-0.936923	0.003257	-0.008554	0.006667	0.999941	
3657														-0.085239	0.057124	9.732318	-0.936889	0.349475	-0.010331	-0.349523	-0.936922	0.003256	-0.008541	0.006661	0.999941	
3658														-0.087055	0.058150	9.746914	-0.936882	0.349492	-0.010337	-0.349541	-0.936916	0.003263	-0.008545	0.006670	0.999941	
3659														-0.078695	0.076669	9.805657	-0.936881	0.349496	-0.010337	-0.349544	-0.936914	0.003256	-0.008547	0.006663	0.999941	
3660														-0.074156	0.060465	9.747832	-0.936869	0.349528	-0.010308	-0.349576	-0.936902	0.003260	-0.008519	0.006658	0.999942	
3661														-0.074836	0.060984	9.747823	-0.936873	0.349518	-0.010300	-0.349567	-0.936906	0.003274	-0.008506	0.006667	0.999942	
3662														-0.091288	0.060716	9.761477	-0.936877	0.349507	-0.010320	-0.349556	-0.936910	0.003275	-0.008524	0.006676	0.999941	
3663														-0.080250	0.091905	9.761187	-0.936875	0.349511	-0.010304	-0.349560	-0.936908	0.003309	-0.008497	0.006702	0.999941	
3664														-0.078173	0.063206	9.762400	-0.936875	0.349513	-0.010263	-0.349561	-0.936908	0.003286	-0.008467	0.006666	0.999942	
3665														-0.076432	0.048489	9.748398	-0.936880	0.349501	-0.010240	-0.349549	-0.936912	0.003307	-0.008439	0.006677	0.999942	
3666														-0.081222	0.092805	9.746552	-0.936884	0.349489	-0.010246	-0.349537	-0.936917	0.003315	-0.008441	0.006687	0.999942	
3667														-0.098479	0.078917	9.790021	-0.936883	0.349491	-0.010274	-0.349540	-0.936916	0.003296	-0.008474	0.006679	0.999942	
3668														-0.082635	0.065713	9.776963	-0.936887	0.349480	-0.010280	-0.349528	-0.936920	0.003304	-0.008477	0.006688	0.999942	
3669														-0.081531	0.065106	9.747743	-0.936892	0.349469	-0.010273	-0.349517	-0.936924	0.003284	-0.008478	0.006667	0.999942	
3670														-0.114889	0.078307	9.774426	-0.936890	0.349473	-0.010273	-0.349521	-0.936923	0.003276	-0.008480	0.006660	0.999942	
3671														-0.085414	0.067025	9.776930	-0.936894	0.349462	-0.010293	-0.349510	-0.936927	0.003278	-0.008498	0.006669	0.999942	
3672														-0.084310	0.066560	9.747709	-0.936888	0.349479	-0.010284	-0.349527	-0.936920	0.003291	-0.008485	0.006678	0.999942	
3673														-0.084126	0.066476	9.733095	-0.936903	0.349439	-0.010277	-0.349487	-0.936936	0.003272	-0.008485	0.006658	0.999942	
3674														-0.088045	0.068340	9.776898	-0.936886	0.349484	-0.010271	-0.349532	-0.936919	0.003250	-0.008487	0.006635	0.999942	
3675														-0.075832	0.084668	9.777224	-0.936896	0.349458	-0.010284	-0.349506	-0.936929	0.003238	-0.008504	0.006628	0.999942	
3676														-0.086611	0.053580	9.748287	-0.936894	0.349461	-0.010290	-0.349509	-0.936927	0.003246	-0.008507	0.006637	0.999942	
3677														-0.091848	0.070322	9.791466	-0.936894	0.349463	-0.010281	-0.349511	-0.936926	0.003260	-0.008494	0.006647	0.999942	
3678														-0.089484	0.069185	9.747645	-0.936898	0.349452	-0.010247	-0.349499	-0.936931	0.003252	-0.008464	0.006628	0.999942	
3679														-0.077133	0.085678	9.747972	-0.936897	0.349454	-0.010272	-0.349502	-0.936930	0.003267	-0.008483	0.006651	0.999942	
3680														-0.094277	0.071943	9.791431	-0.936891	0.349472	-0.010264	-0.349520	-0.936923	0.003280	-0.008470	0.006660	0.999942	
3681														-0.079460	0.073195	9.777781	-0.936901	0.349446	-0.010238	-0.349494	-0.936933	0.003252	-0.008456	0.006625	0.999942	
3682														-0.092586	0.057044	9.762828	-0.936905	0.349434	-0.010271	-0.349482	-0.936938	0.003249	-0.008488	0.006633	0.999942	
3683														-0.093489	0.057555	9.762816	-0.936904	0.349437	-0.010243	-0.349485	-0.936936	0.003254	-0.008460	0.006628	0.999942	
3684														-0.078954	0.072997	9.733940	-0.936903	0.349441	-0.010235	-0.349488	-0.936935	0.003267	-0.008448	0.006638	0.999942	
3685														-0.081401	0.060542	9.778367	-0.936902	0.349444	-0.010221	-0.349491	-0.936934	0.003267	-0.008435	0.006633	0.999942	
3686														-0.069065	0.077049	9.778697	-0.936905	0.349434	-0.010227	-0.349482	-0.936937	0.003274	-0.008438	0.006642	0.999942	
3687														-0.081155	0.060421	9.749141	-0.936894	0.349465	-0.010234	-0.349512	-0.936926	0.003246	-0.008454	0.006618	0.999942	
3688														-0.083225	0.061233	9.763733	-0.936899	0.349451	-0.010241	-0.349499	-0.936931	0.003221	-0.008470	0.006597	0.999942	
3689														-0.083848	0.047784	9.778955	-0.936902	0.349442	-0.010259	-0.349489	-0.936935	0.003256	-0.008474	0.006636	0.999942	
3690														-0.086509	0.077120	9.763075	-0.936896	0.349458	-0.010265	-0.349506	-0.936928	0.003263	-0.008477	0.006645	0.999942	
3691														-0.083530	0.047955	9.749729	-0.936889	0.349477	-0.010250	-0.349525	-0.936921	0.003262	-0.008464	0.006639	0.999942	
3692														-0.088844	0.064497	9.792892	-0.936888	0.349480	-0.010245	-0.349527	-0.936921	0.003241	-0.008466	0.006617	0.999942	
3693														-0.087602	0.063863	9.763678	-0.936892	0.349470	-0.010237	-0.349518	-0.936924	0.003255	-0.008454	0.006627	0.999942	
3694														-0.089472	0.064991	9.778268	-0.936890	0.349473	-0.010242	-0.349521	-0.936923	0.003262	-0.008456	0.006636	0.999942	
3695														-0.089257	0.064819	9.763657	-0.936895	0.349462	-0.010216	-0.349509	-0.936927	0.003234	-0.008442	0.006600	0.999943	
3696														-0.089114	0.064644	9.749044	-0.936899	0.349450	-0.010236	-0.349498	-0.936932	0.003236	-0.008459	0.006609	0.999942	
3697														-0.105757	0.064394	9.762648	-0.936898	0.349453	-0.010261	-0.349501	-0.936930	0.003251	-0.008478	0.006632	0.999942	
3698														-0.090717	0.051856	9.764259	-0.936907	0.349428	-0.010247	-0.349475	-0.936940	0.003252	-0.008464	0.006628	0.999942	
3699														-0.079732	0.082881	9.763954	-0.936906	0.349431	-0.010232	-0.349478	-0.936939	0.003251	-0.008451	0.006622	0.999942	
3700														-0.077826	0.054259	9.765225	-0.936905	0.349434	-0.010253	-0.349481	-0.936938	0.003252	-0.008470	0.006630	0.999942	
3701														-0.094393	0.053861	9.778827	-0.936909	0.349422	-0.010252	-0.349470	-0.936942	0.003246	-0.008472	0.006625	0.999942	
3702														-0.094615	0.067926	9.748970	-0.936908	0.349426	-0.010264	-0.349474	-0.936940	0.003268	-0.008475	0.006648	0.999942	
3703														-0.096576	0.069125	9.763557	-0.936901	0.349443	-0.010270	-0.349492	-0.936934	0.003274	-0.008478	0.006657	0.999942	
3704														-0.097050	0.055686	9.778791	-0.936895	0.349461	-0.010262	-0.349509	-0.936927	0.003287	-0.008466	0.006666	0.999942	
3705														-0.067962	0.058405	9.766165	-0.936894	0.349463	-0.010292	-0.349511	-0.936927	0.003234	-0.008512	0.006627	0.999942	
3706														-0.100633	0.070958	9.778118	-0.936908	0.349423	-0.010297	-0.349471	-0.936941	0.003243	-0.008514	0.006637	0.999942	
3707														-0.099064	0.056358	9.764153	-0.936902	0.349440	-0.010296	-0.349488	-0.936935	0.003236	-0.008516	0.006630	0.999942	
3708														-0.074346	0.075453	9.794687	-0.936901	0.349443	-0.010288	-0.349491	-0.936934	0.003250	-0.008504	0.006640	0.999942	
3709														-0.089647	0.074506	9.793679	-0.936895	0.349461	-0.010274	-0.349509	-0.936927	0.003248	-0.008490	0.006634	0.999942	
3710														-0.087012	0.059277	9.765118	-0.936888	0.349477	-0.010287	-0.349525	-0.936921	0.003235	-0.008508	0.006627	0.999942	
3711														-0.099971	0.043205	9.750158	-0.936892	0.349468	-0.010279	-0.349515	-0.936925	0.003249	-0.008496	0.006636	0.999942	
3712														-0.076844	0.076878	9.780045	-0.936891	0.349470	-0.010307	-0.349518	-0.936924	0.003230	-0.008528	0.006629	0.999942	
3713														-0.076471	0.062821	9.780686	-0.936895	0.349460	-0.010313	-0.349508	-0.936928	0.003237	-0.008531	0.006637	0.999942	
3714														-0.077675	0.077500	9.765421	-0.936893	0.349463	-0.010311	-0.349511	-0.936926	0.003265	-0.008520	0.006663	0.999942	
3715														-0.089119	0.046934	9.751115	-0.936892	0.349466	-0.010311	-0.349514	-0.936925	0.003258	-0.008522	0.006656	0.999942	
3716														-0.079052	0.064586	9.780654	-0.936886	0.349483	-0.010316	-0.349531	-0.936919	0.003265	-0.008525	0.006665	0.999941	
3717														-0.094497	0.063619	9.779634	-0.936890	0.349471	-0.010316	-0.349520	-0.936923	0.003259	-0.008526	0.006659	0.999941	
3718														-0.080415	0.051457	9.795890	-0.936889	0.349475	-0.010296	-0.349523	-0.936922	0.003244	-0.008512	0.006638	0.999942	
3719														-0.082049	0.079837	9.765367	-0.936888	0.349477	-0.010309	-0.349525	-0.936922	0.003232	-0.008529	0.006631	0.999942	
3720														-0.082517	0.066417	9.780613	-0.936887	0.349481	-0.010293	-0.349529	-0.936920	0.003265	-0.008503	0.006657	0.999942	
3721														-0.095819	0.064481	9.750390	-0.936891	0.349470	-0.010327	-0.349518	-0.936924	0.003261	-0.008536	0.006664	0.999941	
3722														-0.083267	0.067104	9.765990	-0.936873	0.349517	-0.010305	-0.349565	-0.936906	0.003278	-0.008509	0.006673	0.999942	
3723														-0.098924	0.079984	9.749705	-0.936878	0.349505	-0.010292	-0.349553	-0.936911	0.003244	-0.008509	0.006637	0.999942	
3724														-0.085992	0.068392	9.780569	-0.936882	0.349494	-0.010298	-0.349542	-0.936915	0.003252	-0.008512	0.006646	0.999942	
3725														-0.099201	0.066298	9.750344	-0.936881	0.349497	-0.010284	-0.349545	-0.936914	0.003251	-0.008499	0.006641	0.999942	
3726														-0.099581	0.052738	9.765596	-0.936885	0.349487	-0.010269	-0.349535	-0.936918	0.003251	-0.008485	0.006635	0.999942	
3727														-0.099395	0.052618	9.750987	-0.936895	0.349460	-0.010282	-0.349508	-0.936928	0.003239	-0.008502	0.006629	0.999942	
3728														-0.103548	0.054807	9.794768	-0.936888	0.349478	-0.010274	-0.349526	-0.936921	0.003252	-0.008490	0.006638	0.999942	
3729														-0.101121	0.053564	9.750964	-0.936892	0.349467	-0.010268	-0.349515	-0.936925	0.003232	-0.008491	0.006617	0.999942	
3730														-0.089510	0.056626	9.781172	-0.936875	0.349514	-0.010246	-0.349562	-0.936908	0.003249	-0.008464	0.006626	0.999942	
3731														-0.076179	0.072560	9.766921	-0.936869	0.349531	-0.010254	-0.349578	-0.936902	0.003221	-0.008481	0.006603	0.999942	
3732														-0.076709	0.058999	9.782177	-0.936873	0.349521	-0.010246	-0.349568	-0.936905	0.003235	-0.008469	0.006612	0.999942	
3733														-0.090981	0.057450	9.766543	-0.936882	0.349495	-0.010246	-0.349543	-0.936915	0.003229	-0.008471	0.006607	0.999942	
3734														-0.775038	0.077888	9.788153	-0.936861	0.349551	-0.010261	-0.349597	-0.936895	0.003064	-0.008543	0.006458	0.999943	
3735														-0.223443	0.042463	9.742642	-0.936919	0.349395	-0.010292	-0.349441	-0.936954	0.002983	-0.008601	0.006391	0.999943	
3736														0.729431	0.081236	9.768648	-0.936891	0.349471	-0.010256	-0.349517	-0.936925	0.003005	-0.008559	0.006400	0.999943	
3737														-0.082167	0.059437	9.782130	-0.936890	0.349473	-0.010298	-0.349518	-0.936925	0.002980	-0.008607	0.006391	0.999943	
3738														-0.095561	0.057371	9.751890	-0.936888	0.349477	-0.010296	-0.349523	-0.936923	0.003007	-0.008595	0.006416	0.999942	
3739														-0.095286	0.057326	9.737282	-0.936904	0.349436	-0.010289	-0.349482	-0.936938	0.002988	-0.008596	0.006396	0.999943	
3740														-0.083774	0.060345	9.767502	-0.936902	0.349440	-0.010275	-0.349486	-0.936937	0.002988	-0.008583	0.006390	0.999943	
3741														-0.083427	0.060300	9.752896	-0.936907	0.349429	-0.010267	-0.349475	-0.936941	0.003001	-0.008571	0.006400	0.999943	
3742														-0.100994	0.060421	9.781038	-0.936911	0.349418	-0.010266	-0.349464	-0.936945	0.002995	-0.008573	0.006394	0.999943	
3743														-0.087441	0.062461	9.782066	-0.936920	0.349392	-0.010286	-0.349438	-0.936955	0.002998	-0.008590	0.006403	0.999943	
3744														-0.100667	0.060384	9.751820	-0.936914	0.349410	-0.010278	-0.349456	-0.936948	0.003010	-0.008578	0.006412	0.999943	
3745														-0.086440	0.048525	9.768127	-0.936928	0.349371	-0.010256	-0.349417	-0.936963	0.003032	-0.008550	0.006424	0.999943	
3746														-0.106031	0.077187	9.780307	-0.936938	0.349344	-0.010298	-0.349390	-0.936972	0.003008	-0.008598	0.006416	0.999942	
3747														-0.112154	0.135291	9.762973	-0.937011	0.349147	-0.010324	-0.349193	-0.937046	0.002998	-0.008628	0.006414	0.999942	
3748														-0.075142	0.051474	9.769139	-0.937144	0.348791	-0.010316	-0.348837	-0.937178	0.002993	-0.008624	0.006404	0.999942	
3749														-0.068951	-0.006968	9.757263	-0.937159	0.348751	-0.010324	-0.348797	-0.937194	0.002968	-0.008640	0.006383	0.999942	
3750														-0.093005	0.065197	9.767387	-0.937168	0.348726	-0.010309	-0.348772	-0.937203	0.002969	-0.008627	0.006378	0.999942	
3751														-0.078992	0.053278	9.783705	-0.937162	0.348742	-0.010329	-0.348788	-0.937197	0.002970	-0.008645	0.006386	0.999942	
3752														-0.094750	0.066367	9.767363	-0.937160	0.348747	-0.010313	-0.348793	-0.937195	0.003003	-0.008618	0.006411	0.999942	
3753														-0.083684	0.083484	9.782315	-0.937149	0.348777	-0.010315	-0.348823	-0.937184	0.002961	-0.008634	0.006373	0.999942	
3754														-0.095364	0.066655	9.752746	-0.937137	0.348809	-0.010313	-0.348855	-0.937172	0.002987	-0.008623	0.006397	0.999942	
3755														-0.111049	0.079731	9.736396	-0.937125	0.348842	-0.010305	-0.348888	-0.937160	0.002999	-0.008611	0.006406	0.999942	
3756														-0.083193	0.056009	9.783655	-0.937033	0.349088	-0.010312	-0.349134	-0.937068	0.002995	-0.008617	0.006407	0.999942	
3757														-0.068469	0.057458	9.770110	-0.937011	0.349149	-0.010312	-0.349194	-0.937046	0.002985	-0.008620	0.006398	0.999942	
3758														-0.086614	0.071454	9.782944	-0.937020	0.349122	-0.010326	-0.349168	-0.937055	0.002974	-0.008637	0.006392	0.999942	
3759														-0.085120	0.070980	9.753745	-0.937029	0.349099	-0.010301	-0.349145	-0.937064	0.003029	-0.008596	0.006434	0.999942	
3760														-0.086644	0.072403	9.768329	-0.937049	0.349047	-0.010256	-0.349094	-0.937083	0.003076	-0.008537	0.006463	0.999943	
3761														-0.100300	0.073336	9.767258	-0.937108	0.348894	-0.010107	-0.348943	-0.937137	0.003540	-0.008237	0.006845	0.999943	
3762														-0.099402	0.090370	9.751953	-0.937185	0.348689	-0.010021	-0.348739	-0.937212	0.003730	-0.008091	0.006990	0.999943	
3763														-0.069331	0.067352	9.784646	-0.937449	0.347981	-0.009983	-0.348032	-0.937475	0.003870	-0.008012	0.007102	0.999943	
3764														-0.044512	0.129005	9.754740	-0.938009	0.346467	-0.009958	-0.346518	-0.938035	0.003973	-0.007965	0.007177	0.999943	
3765														-0.149165	-0.012721	9.781818	-0.938479	0.345194	-0.009903	-0.345246	-0.938504	0.004029	-0.007903	0.007200	0.999943	
3766														-0.144647	0.076496	9.778622	-0.938742	0.344479	-0.009874	-0.344530	-0.938767	0.003999	-0.007892	0.007156	0.999943	
3767														-0.117467	0.107205	9.750130	-0.939011	0.343746	-0.009831	-0.343795	-0.939037	0.003859	-0.007905	0.007004	0.999944	
3768														-0.078662	0.022192	9.741892	-0.939231	0.343144	-0.009831	-0.343193	-0.939257	0.003812	-0.007926	0.006954	0.999944	
3769														-0.178554	0.086270	9.775752	-0.939473	0.342481	-0.009849	-0.342530	-0.939500	0.003694	-0.007988	0.006844	0.999945	
3770														-0.261605	0.150681	9.781474	-0.939865	0.341406	-0.009812	-0.341454	-0.939891	0.003666	-0.007971	0.006796	0.999945	
3771														-0.232646	0.153661	9.768978	-0.940499	0.339654	-0.009866	-0.339703	-0.940526	0.003695	-0.008024	0.006827	0.999944	
3772														-0.093492	0.096505	9.767497	-0.941238	0.337601	-0.009802	-0.337649	-0.941265	0.003739	-0.007964	0.006829	0.999945	
3773														-0.124329	0.225592	9.760035	-0.942062	0.335298	-0.009777	-0.335345	-0.942088	0.003694	-0.007973	0.006758	0.999945	
3774														-0.183153	0.204429	9.771045	-0.942960	0.332763	-0.009795	-0.332811	-0.942986	0.003723	-0.007998	0.006770	0.999945	
3775														-0.151959	0.061031	9.779201	-0.943968	0.329892	-0.009776	-0.329939	-0.943995	0.003684	-0.008013	0.006703	0.999945	
3776														-0.227707	0.079337	9.757828	-0.945099	0.326641	-0.009695	-0.326688	-0.945125	0.003637	-0.007975	0.006605	0.999946	
3777														-0.130326	0.328781	9.770662	-0.946312	0.323110	-0.009704	-0.323156	-0.946339	0.003582	-0.008026	0.006525	0.999947	
3778														-0.245319	0.387385	9.774155	-0.947633	0.319212	-0.009770	-0.319258	-0.947661	0.003568	-0.008120	0.006501	0.999946	
3779														0.174388	0.355252	9.735539	-0.948935	0.315319	-0.009811	-0.315365	-0.948964	0.003450	-0.008222	0.006368	0.999946	
3780														0.065886	0.140692	9.749796	-0.950090	0.311797	-0.009904	-0.311843	-0.950121	0.003376	-0.008357	0.006296	0.999945	
3781														-0.042616	-0.073868	9.764053	-0.951245	0.308275	-0.009998	-0.308321	-0.951277	0.003303	-0.008493	0.006224	0.999945	
3782														0.306582	0.188290	9.782763	-0.952652	0.303899	-0.010019	-0.303943	-0.952685	0.003200	-0.008573	0.006093	0.999945	
3783														0.139188	0.385949	9.776924	-0.954299	0.298685	-0.010000	-0.298728	-0.954333	0.003166	-0.008598	0.006009	0.999945	
3784														-0.250543	0.307000	9.748315	-0.956134	0.292757	-0.010000	-0.292801	-0.956168	0.003140	-0.008643	0.005930	0.999945	
3785														-0.559616	0.015004	9.733592	-0.957607	0.287903	-0.010084	-0.287946	-0.957641	0.003132	-0.008755	0.005903	0.999944	
3786														-0.210231	-0.043587	9.764304	-0.959332	0.282097	-0.010119	-0.282140	-0.959368	0.003053	-0.008846	0.005784	0.999944	
3787														-0.291328	-0.266470	9.794762	-0.960921	0.276638	-0.010077	-0.276681	-0.960957	0.003089	-0.008829	0.005757	0.999944	
3788														-0.088687	0.009022	9.787261	-0.962355	0.271610	-0.010074	-0.271653	-0.962390	0.003108	-0.008851	0.005727	0.999944	
3789														-0.148100	0.160771	9.762569	-0.963791	0.266467	-0.010152	-0.266509	-0.963828	0.003050	-0.008972	0.005645	0.999944	
3790														-0.189155	0.185269	9.817276	-0.965276	0.261038	-0.010088	-0.261081	-0.965312	0.003108	-0.008927	0.005634	0.999944	
3791														-0.288994	0.176277	9.750502	-0.966746	0.255537	-0.010113	-0.255579	-0.966783	0.003102	-0.008985	0.005584	0.999944	
3792														-0.194526	0.150021	9.744633	-0.968194	0.249999	-0.010009	-0.250040	-0.968230	0.003097	-0.008916	0.005502	0.999945	
3793														-0.150387	0.057324	9.810225	-0.969611	0.244449	-0.010016	-0.244490	-0.969647	0.003084	-0.008958	0.005439	0.999945	
3794														0.018200	-0.207892	9.759411	-0.971068	0.238592	-0.010043	-0.238633	-0.971105	0.003142	-0.009004	0.005448	0.999945	
3795														-0.041248	-0.071670	9.735395	-0.972563	0.232424	-0.009976	-0.232465	-0.972600	0.003134	-0.008974	0.005367	0.999945	
3796														-0.089215	0.236495	9.780707	-0.974091	0.225932	-0.010035	-0.225974	-0.974128	0.003224	-0.009047	0.005408	0.999944	
3797														-0.145815	0.376439	9.830679	-0.975556	0.219525	-0.009993	-0.219565	-0.975593	0.003072	-0.009075	0.005191	0.999945	
3798														-0.115182	0.045099	9.710961	-0.976951	0.213236	-0.009886	-0.213276	-0.976987	0.003180	-0.008981	0.005215	0.999946	
3799														-0.177660	-0.101113	9.827609	-0.978315	0.206885	-0.009932	-0.206925	-0.978352	0.003171	-0.009061	0.005158	0.999946	
3800														-0.253327	0.087105	9.756833	-0.979784	0.199818	-0.009808	-0.199858	-0.979819	0.003270	-0.008956	0.005164	0.999947	
3801														-0.002268	0.170226	9.746738	-0.981282	0.192325	-0.009821	-0.192365	-0.981318	0.003323	-0.008998	0.005150	0.999946	
3802														-0.076142	0.304681	9.780960	-0.982702	0.184936	-0.009806	-0.184975	-0.982738	0.003285	-0.009029	0.005042	0.999947	
3803														-0.174505	0.108001	9.777980	-0.984116	0.177256	-0.009815	-0.177294	-0.984153	0.003187	-0.009095	0.004876	0.999947	
3804														-0.099308	0.006961	9.772559	-0.985546	0.169124	-0.009776	-0.169162	-0.985583	0.003205	-0.009093	0.004813	0.999947	
3805														-0.046765	0.038449	9.761652	-0.986932	0.160843	-0.009683	-0.160882	-0.986968	0.003360	-0.009017	0.004874	0.999947	
3806														0.051023	0.070107	9.754792	-0.988193	0.152904	-0.009711	-0.152942	-0.988230	0.003316	-0.009090	0.004762	0.999947	
3807														0.011715	0.089498	9.765697	-0.989318	0.145457	-0.009622	-0.145494	-0.989354	0.003272	-0.009043	0.004637	0.999948	
3808														0.017993	-0.063649	9.740579	-0.990304	0.138579	-0.009672	-0.138616	-0.990341	0.003271	-0.009125	0.004580	0.999948	
3809														0.021512	-0.123121	9.757016	-0.991159	0.132335	-0.009606	-0.132371	-0.991195	0.003215	-0.009096	0.004458	0.999949	
3810														0.058368	0.031767	9.786191	-0.991889	0.126747	-0.009579	-0.126783	-0.991925	0.003293	-0.009085	0.004481	0.999949	
3811														0.075112	-0.008866	9.759239	-0.992509	0.121798	-0.009523	-0.121835	-0.992545	0.003336	-0.009046	0.004472	0.999949	
3812														-0.006403	-0.005263	9.781391	-0.993046	0.117347	-0.009483	-0.117383	-0.993081	0.003241	-0.009037	0.004332	0.999950	
3813														-0.110169	-0.059832	9.758672	-0.993535	0.113128	-0.009455	-0.113163	-0.993571	0.003275	-0.009024	0.004324	0.999950	
3814														-0.188464	0.020900	9.764724	-0.994003	0.108948	-0.009416	-0.108982	-0.994038	0.003215	-0.009010	0.004222	0.999950	
3815														-0.049106	0.058737	9.791148	-0.994442	0.104857	-0.009451	-0.104891	-0.994479	0.003177	-0.009065	0.004151	0.999950	
3816														-0.057780	0.118764	9.789275	-0.994848	0.100933	-0.009480	-0.100967	-0.994885	0.003166	-0.009112	0.004107	0.999950	
3817														-0.135891	0.119189	9.767628	-0.995259	0.096807	-0.009341	-0.096840	-0.995295	0.003133	-0.008993	0.004023	0.999951	
3818														-0.245246	0.075885	9.758717	-0.995673	0.092460	-0.009335	-0.092493	-0.995708	0.003134	-0.009005	0.003984	0.999952	
3819														-0.073799	-0.123856	9.778061	-0.996092	0.087825	-0.009402	-0.087857	-0.996129	0.003017	-0.009101	0.003831	0.999951	
3820														-0.147352	-0.138326	9.771723	-0.996478	0.083331	-0.009355	-0.083362	-0.996515	0.002989	-0.009073	0.003759	0.999952	
3821														0.053774	-0.055169	9.803059	-0.996814	0.079204	-0.009374	-0.079234	-0.996852	0.002943	-0.009111	0.003676	0.999952	
3822														0.149681	-0.003540	9.722630	-0.997066	0.075975	-0.009385	-0.076005	-0.997103	0.002922	-0.009136	0.003627	0.999952	
3823														0.051783	-0.120222	9.760072	-0.997259	0.073399	-0.009357	-0.073430	-0.997296	0.002947	-0.009116	0.003626	0.999952	
3824														0.002692	-0.043838	9.769047	-0.997423	0.071132	-0.009365	-0.071163	-0.997460	0.002964	-0.009130	0.003623	0.999952	
3825														-0.081364	0.001479	9.775395	-0.997561	0.069175	-0.009322	-0.069205	-0.997598	0.002950	-0.009096	0.003588	0.999952	
3826														-0.101437	0.088287	9.757407	-0.997681	0.067421	-0.009316	-0.067452	-0.997718	0.002995	-0.009093	0.003617	0.999952	
3827														-0.098921	0.108734	9.801516	-0.997791	0.065772	-0.009357	-0.065803	-0.997828	0.002976	-0.009141	0.003585	0.999952	
3828														-0.067341	0.041205	9.761521	-0.997905	0.064017	-0.009336	-0.064048	-0.997942	0.003026	-0.009123	0.003617	0.999952	
3829														-0.002490	-0.184804	9.771384	-0.998013	0.062307	-0.009321	-0.062338	-0.998050	0.003040	-0.009114	0.003615	0.999952	
3830														-0.003505	-0.073056	9.769454	-0.998094	0.060998	-0.009338	-0.061028	-0.998132	0.002965	-0.009139	0.003529	0.999952	
3831														-0.022931	0.045607	9.751051	-0.998160	0.059907	-0.009359	-0.059936	-0.998198	0.002894	-0.009169	0.003450	0.999952	
3832														-0.150167	0.183789	9.766592	-0.998224	0.058833	-0.009372	-0.058863	-0.998262	0.002904	-0.009184	0.003451	0.999952	
3833														-0.152611	0.106303	9.811871	-0.998304	0.057466	-0.009327	-0.057496	-0.998341	0.002959	-0.009142	0.003490	0.999952	
3834														-0.132260	-0.000321	9.742009	-0.998406	0.055658	-0.009308	-0.055687	-0.998444	0.002900	-0.009132	0.003414	0.999952	
3835														-0.100465	0.031036	9.759207	-0.998504	0.053881	-0.009348	-0.053911	-0.998542	0.002887	-0.009179	0.003386	0.999952	
3836														-0.085433	0.103054	9.759526	-0.998601	0.052045	-0.009379	-0.052075	-0.998639	0.002958	-0.009213	0.003442	0.999952	
3837														-0.075820	0.044197	9.761446	-0.998689	0.050331	-0.009309	-0.050360	-0.998727	0.002940	-0.009150	0.003405	0.999952	
3838														-0.072642	-0.079613	9.807934	-0.998768	0.048741	-0.009315	-0.048771	-0.998806	0.002959	-0.009160	0.003410	0.999952	
3839														-0.133187	-0.011369	9.771888	-0.998838	0.047293	-0.009300	-0.047323	-0.998875	0.003010	-0.009147	0.003446	0.999952	
3840														-0.140099	0.002318	9.771106	-0.998905	0.045841	-0.009324	-0.045870	-0.998943	0.002970	-0.009178	0.003395	0.999952	
3841														-0.289319	0.080183	9.770804	-0.998980	0.044190	-0.009241	-0.044220	-0.999017	0.003016	-0.009099	0.003422	0.999953	
3842														-0.018303	0.123168	9.765892	-0.999065	0.042238	-0.009278	-0.042267	-0.999102	0.002996	-0.009143	0.003386	0.999952	
3843														-0.025589	0.104059	9.750937	-0.999137	0.040490	-0.009316	-0.040519	-0.999174	0.003030	-0.009186	0.003405	0.999952	
3844														-0.016303	0.111682	9.781226	-0.999208	0.038681	-0.009318	-0.038711	-0.999246	0.003108	-0.009191	0.003466	0.999952	
3845														-0.044659	0.067196	9.779362	-0.999271	0.037024	-0.009289	-0.037053	-0.999309	0.003061	-0.009170	0.003403	0.999952	
3846														-0.092135	-0.069341	9.747674	-0.999328	0.035462	-0.009277	-0.035491	-0.999365	0.003068	-0.009162	0.003395	0.999952	
3847														-0.166429	0.011914	9.783690	-0.999392	0.033617	-0.009237	-0.033646	-0.999429	0.003048	-0.009129	0.003357	0.999953	
3848														-0.235224	0.058835	9.747190	-0.999461	0.031489	-0.009269	-0.031518	-0.999499	0.003022	-0.009169	0.003312	0.999952	
3849														-0.195663	-0.000386	9.795968	-0.999536	0.029035	-0.009185	-0.029065	-0.999573	0.003057	-0.009092	0.003322	0.999953	
3850														-0.149265	0.116354	9.739769	-0.999602	0.026674	-0.009168	-0.026704	-0.999639	0.003101	-0.009082	0.003345	0.999953	
3851														-0.167597	0.012589	9.769062	-0.999659	0.024468	-0.009130	-0.024497	-0.999695	0.003112	-0.009051	0.003335	0.999953	
3852														-0.173469	0.091074	9.767412	-0.999715	0.022086	-0.009069	-0.022115	-0.999751	0.003043	-0.008999	0.003243	0.999954	
3853														-0.155162	0.149541	9.783057	-0.999772	0.019375	-0.009009	-0.019403	-0.999807	0.003004	-0.008949	0.003178	0.999955	
3854														-0.103192	0.142591	9.773446	-0.999825	0.016335	-0.009111	-0.016364	-0.999861	0.003065	-0.009060	0.003214	0.999954	
3855														-0.057080	0.018064	9.750208	-0.999871	0.013231	-0.009087	-0.013259	-0.999907	0.003067	-0.009045	0.003187	0.999954	
3856														-0.096915	-0.001314	9.746774	-0.999908	0.010109	-0.009059	-0.010137	-0.999944	0.003055	-0.009028	0.003146	0.999954	
3857														-0.113431	0.123803	9.773040	-0.999935	0.007003	-0.009013	-0.007031	-0.999970	0.003093	-0.008991	0.003156	0.999955	
3858														-0.094380	0.019290	9.776279	-0.999952	0.003799	-0.009011	-0.003827	-0.999988	0.003062	-0.008999	0.003097	0.999955	
3859														-0.047378	0.058570	9.750893	-0.999959	0.000687	-0.009043	-0.000715	-0.999995	0.003035	-0.009041	0.003041	0.999955	
3860														-0.032804	0.065066	9.722869	-0.999956	-0.002441	-0.009032	0.002413	-0.999993	0.003019	-0.009039	0.002997	0.999955	
3861														0.004278	0.003805	9.749288	-0.999941	-0.005258	-0.009072	0.005231	-0.999978	0.002969	-0.009087	0.002921	0.999954	
3862														0.041361	-0.057457	9.775707	-0.999926	-0.008075	-0.009112	0.008048	-0.999963	0.002918	-0.009136	0.002845	0.999954	
3863														-0.087144	-0.039751	9.792842	-0.999900	-0.010796	-0.009111	0.010770	-0.999938	0.002913	-0.009142	0.002815	0.999954	
3864														-0.079090	-0.085828	9.779492	-0.999873	-0.013019	-0.009144	0.012994	-0.999912	0.002814	-0.009180	0.002695	0.999954	
3865														-0.212975	0.008755	9.765733	-0.999837	-0.015554	-0.009181	0.015529	-0.999875	0.002823	-0.009223	0.002680	0.999954	
3866														-0.193159	0.219129	9.765360	-0.999798	-0.017960	-0.009033	0.017935	-0.999835	0.002838	-0.009083	0.002675	0.999955	
3867														-0.114253	0.162208	9.773610	-0.999752	-0.020297	-0.009122	0.020273	-0.999791	0.002716	-0.009175	0.002530	0.999955	
3868														-0.122966	-0.094525	9.731458	-0.999700	-0.022738	-0.009148	0.022714	-0.999738	0.002738	-0.009208	0.002530	0.999954	
3869														-0.055006	-0.018689	9.810848	-0.999638	-0.025324	-0.009131	0.025300	-0.999676	0.002716	-0.009197	0.002484	0.999955	
3870														-0.000600	-0.023459	9.786762	-0.999573	-0.027738	-0.009141	0.027714	-0.999612	0.002663	-0.009211	0.002408	0.999955	
3871														0.018356	0.003434	9.773696	-0.999507	-0.030026	-0.009155	0.030003	-0.999546	0.002619	-0.009230	0.002343	0.999955	
3872														-0.095941	0.058031	9.762262	-0.999438	-0.032247	-0.009164	0.032224	-0.999477	0.002683	-0.009246	0.002386	0.999954	
3873														-0.036364	0.127174	9.782179	-0.999363	-0.034489	-0.009186	0.034465	-0.999402	0.002667	-0.009273	0.002348	0.999954	
3874														-0.072697	0.040335	9.779593	-0.999276	-0.036920	-0.009200	0.036898	-0.999316	0.002630	-0.009291	0.002288	0.999954	
3875														-0.083581	0.000626	9.764296	-0.999171	-0.039634	-0.009244	0.039611	-0.999212	0.002678	-0.009343	0.002309	0.999954	
3876														-0.050567	0.002479	9.752846	-0.999063	-0.042289	-0.009218	0.042266	-0.999103	0.002614	-0.009320	0.002222	0.999954	
3877														-0.133673	0.024190	9.774098	-0.998943	-0.045039	-0.009209	0.045017	-0.998983	0.002566	-0.009315	0.002149	0.999954	
3878														-0.154449	0.115267	9.786120	-0.998808	-0.047927	-0.009207	0.047905	-0.998848	0.002632	-0.009323	0.002188	0.999954	
3879														-0.249076	0.129382	9.791600	-0.998652	-0.051103	-0.009134	0.051081	-0.998691	0.002603	-0.009255	0.002133	0.999955	
3880														-0.268683	0.133801	9.775021	-0.998477	-0.054409	-0.009164	0.054388	-0.998517	0.002558	-0.009289	0.002055	0.999955	
3881														-0.279003	0.092712	9.759710	-0.998255	-0.058332	-0.009158	0.058311	-0.998295	0.002534	-0.009290	0.001995	0.999955	
3882														-0.123893	0.031208	9.760630	-0.997997	-0.062603	-0.009150	0.062582	-0.998037	0.002526	-0.009290	0.001949	0.999955	
3883														-0.026057	0.091826	9.784548	-0.997720	-0.066874	-0.009083	0.066853	-0.997760	0.002532	-0.009231	0.001919	0.999956	
3884														-0.031714	0.072153	9.784192	-0.997444	-0.070878	-0.009050	0.070858	-0.997483	0.002533	-0.009207	0.001885	0.999956	
3885														-0.091217	0.172167	9.748467	-0.997147	-0.074933	-0.009111	0.074913	-0.997187	0.002533	-0.009275	0.001843	0.999955	
3886														-0.121697	0.295118	9.789126	-0.996845	-0.078846	-0.009122	0.078826	-0.996885	0.002506	-0.009292	0.001779	0.999955	
3887														-0.141250	-0.029997	9.744942	-0.996505	-0.083032	-0.009174	0.083012	-0.996545	0.002468	-0.009347	0.001698	0.999955	
3888														-0.230833	0.106067	9.765019	-0.996055	-0.088260	-0.009178	0.088241	-0.996096	0.002506	-0.009363	0.001686	0.999955	
3889														-0.190698	0.011004	9.784180	-0.995517	-0.094143	-0.009121	0.094125	-0.995557	0.002446	-0.009311	0.001577	0.999955	
3890														-0.230064	0.018633	9.765595	-0.994897	-0.100486	-0.009087	0.100468	-0.994937	0.002452	-0.009287	0.001526	0.999956	
3891														-0.178555	-0.035972	9.770885	-0.994203	-0.107138	-0.009089	0.107121	-0.994243	0.002341	-0.009287	0.001353	0.999956	
3892														-0.064374	0.003392	9.767352	-0.993460	-0.113820	-0.009058	0.113804	-0.993501	0.002300	-0.009261	0.001254	0.999956	
3893														0.006772	-0.052817	9.789243	-0.992695	-0.120312	-0.009044	0.120296	-0.992735	0.002325	-0.009258	0.001220	0.999956	
3894														-0.167968	0.074724	9.757184	-0.991928	-0.126477	-0.009044	0.126462	-0.991969	0.002224	-0.009253	0.001062	0.999957	
3895														-0.251059	0.234549	9.807891	-0.991113	-0.132719	-0.009014	0.132704	-0.991153	0.002210	-0.009227	0.000994	0.999957	
3896														-0.217550	0.165085	9.752520	-0.990232	-0.139138	-0.009061	0.139123	-0.990273	0.002207	-0.009280	0.000925	0.999957	
3897														-0.226337	-0.002853	9.751715	-0.989245	-0.145986	-0.009103	0.145972	-0.989286	0.002212	-0.009329	0.000859	0.999956	
3898														-0.082463	0.046641	9.751417	-0.988187	-0.152979	-0.009124	0.152966	-0.988229	0.002181	-0.009350	0.000760	0.999956	
3899														-0.028898	0.163237	9.801249	-0.987077	-0.159986	-0.009093	0.159973	-0.987119	0.002207	-0.009329	0.000724	0.999956	
3900														-0.191116	0.093394	9.726244	-0.985905	-0.167059	-0.009087	0.167045	-0.985947	0.002202	-0.009328	0.000653	0.999956	
3901														-0.234680	0.065298	9.795561	-0.984674	-0.174165	-0.009107	0.174153	-0.984716	0.002149	-0.009342	0.000530	0.999956	
3902														-0.170151	-0.037537	9.742758	-0.983409	-0.181174	-0.009059	0.181161	-0.983451	0.002148	-0.009298	0.000471	0.999957	
3903														0.025654	0.063207	9.792163	-0.982163	-0.187813	-0.009014	0.187801	-0.982205	0.002223	-0.009271	0.000490	0.999957	
3904														-0.014340	-0.004796	9.787929	-0.980935	-0.194127	-0.009040	0.194116	-0.980976	0.002117	-0.009279	0.000321	0.999957	
3905														-0.080440	-0.006643	9.707789	-0.979628	-0.200621	-0.008952	0.200610	-0.979669	0.002191	-0.009210	0.000350	0.999958	
3906														-0.121724	0.059689	9.763053	-0.978188	-0.207530	-0.008953	0.207518	-0.978229	0.002273	-0.009230	0.000366	0.999957	
3907														-0.049457	0.083319	9.785225	-0.976497	-0.215348	-0.008883	0.215337	-0.976537	0.002149	-0.009137	0.000186	0.999958	
3908														-0.142720	0.100945	9.776256	-0.974602	-0.223765	-0.008996	0.223755	-0.974643	0.002170	-0.009253	0.000102	0.999957	
3909														-0.162599	0.031106	9.781118	-0.972211	-0.233708	-0.008990	0.233699	-0.972253	0.002124	-0.009236	-0.000036	0.999957	
3910														-0.182477	-0.038734	9.785979	-0.969821	-0.243651	-0.008984	0.243642	-0.969863	0.002077	-0.009219	-0.000174	0.999957	
3911														-0.184085	-0.212366	9.754516	-0.967226	-0.253756	-0.009069	0.253748	-0.967268	0.001994	-0.009278	-0.000372	0.999957	
3912														-0.122677	-0.020695	9.748223	-0.964395	-0.264302	-0.009267	0.264296	-0.964440	0.001847	-0.009425	-0.000668	0.999955	
3913														-0.403355	0.003944	9.838558	-0.961390	-0.275030	-0.009416	0.275027	-0.961435	0.001657	-0.009509	-0.000997	0.999954	
3914														-0.167560	0.098932	9.775300	-0.958176	-0.286023	-0.009462	0.286021	-0.958222	0.001648	-0.009538	-0.001127	0.999954	
3915														-0.166193	0.222298	9.748191	-0.954805	-0.297082	-0.009484	0.297080	-0.954851	0.001695	-0.009559	-0.001199	0.999954	
3916														-0.011406	0.024921	9.731145	-0.951398	-0.307817	-0.009518	0.307815	-0.951445	0.001634	-0.009559	-0.001375	0.999953	
3917														-0.139103	0.031490	9.851183	-0.947896	-0.318439	-0.009488	0.318437	-0.947942	0.001668	-0.009526	-0.001440	0.999954	
3918														-0.068627	0.096756	9.741766	-0.944321	-0.328890	-0.009494	0.328889	-0.944367	0.001708	-0.009527	-0.001509	0.999953	
3919														-0.128512	-0.113287	9.775911	-0.940599	-0.339389	-0.009423	0.339388	-0.940645	0.001728	-0.009450	-0.001572	0.999954	
3920														-0.070386	-0.049082	9.797677	-0.936833	-0.349652	-0.009372	0.349651	-0.936878	0.001752	-0.009393	-0.001636	0.999955	
3921														-0.089131	0.055088	9.709846	-0.933136	-0.359400	-0.009439	0.359400	-0.933182	0.001805	-0.009457	-0.001708	0.999954	
3922														-0.002553	0.100751	9.837401	-0.929491	-0.368725	-0.009419	0.368725	-0.929537	0.001843	-0.009435	-0.001760	0.999954	
3923														-0.133909	0.279910	9.740542	-0.925802	-0.377893	-0.009342	0.377892	-0.925848	0.001893	-0.009364	-0.001777	0.999955	
3924														-0.197598	0.346725	9.765640	-0.922100	-0.386842	-0.009222	0.386841	-0.922144	0.001935	-0.009253	-0.001783	0.999956	
3925														-0.152064	0.195272	9.737097	-0.918415	-0.395513	-0.009184	0.395512	-0.918459	0.001991	-0.009223	-0.001804	0.999956	
3926														-0.053251	0.256936	9.807532	-0.914679	-0.404077	-0.009147	0.404076	-0.914723	0.001997	-0.009174	-0.001870	0.999956	
3927														-0.092570	0.138327	9.785999	-0.910897	-0.412533	-0.009143	0.412533	-0.910941	0.002013	-0.009160	-0.001938	0.999956	
3928														-0.190555	-0.082554	9.770376	-0.907044	-0.420938	-0.009052	0.420938	-0.907087	0.002093	-0.009092	-0.001912	0.999957	
3929														-0.138286	-0.180914	9.802074	-0.903058	-0.429424	-0.009067	0.429423	-0.903101	0.002145	-0.009110	-0.001956	0.999957	
3930														-0.045806	0.001732	9.669214	-0.899027	-0.437800	-0.009053	0.437800	-0.899070	0.002133	-0.009074	-0.002045	0.999957	
3931														-0.074702	0.152650	9.818327	-0.894979	-0.446018	-0.008998	0.446018	-0.895022	0.002177	-0.009024	-0.002065	0.999957	
3932														-0.023119	0.225139	9.796315	-0.890821	-0.454267	-0.008958	0.454267	-0.890863	0.002163	-0.008963	-0.002143	0.999958	
3933														-0.092748	0.172656	9.714521	-0.886591	-0.462467	-0.008952	0.462467	-0.886634	0.002148	-0.008930	-0.002235	0.999958	
3934														-0.180594	-0.097761	9.800368	-0.882237	-0.470721	-0.008885	0.470721	-0.882279	0.002185	-0.008868	-0.002255	0.999958	
3935														-0.166581	0.020711	9.746867	-0.877666	-0.479189	-0.008941	0.479190	-0.877709	0.002145	-0.008876	-0.002402	0.999958	
3936														-0.062863	0.072849	9.758739	-0.872912	-0.487796	-0.008876	0.487797	-0.872954	0.002176	-0.008810	-0.002430	0.999958	
3937														-0.203788	-0.032118	9.785799	-0.868094	-0.496322	-0.008829	0.496323	-0.868135	0.002145	-0.008729	-0.002520	0.999959	
3938														-0.262284	-0.068564	9.808401	-0.863513	-0.504250	-0.008790	0.504252	-0.863554	0.002111	-0.008655	-0.002609	0.999959	
3939														-0.249360	-0.056119	9.751278	-0.858738	-0.512339	-0.008857	0.512342	-0.858779	0.002108	-0.008686	-0.002728	0.999959	
3940														-0.220468	0.054653	9.817290	-0.853645	-0.520779	-0.008894	0.520783	-0.853687	0.002082	-0.008677	-0.002854	0.999958	
3941														0.018071	0.266910	9.671591	-0.848029	-0.529877	-0.008792	0.529881	-0.848069	0.002049	-0.008542	-0.002921	0.999959	
3942														-0.080548	0.130544	9.907406	-0.842398	-0.538784	-0.008788	0.538789	-0.842438	0.001950	-0.008454	-0.003093	0.999959	
3943														-0.089193	-0.052576	9.737268	-0.836619	-0.547715	-0.008798	0.547721	-0.836659	0.001948	-0.008428	-0.003189	0.999959	
3944														0.011436	-0.045805	9.791115	-0.830409	-0.557085	-0.008748	0.557091	-0.830449	0.001929	-0.008339	-0.003272	0.999960	
3945														-0.219391	0.014591	9.742882	-0.824172	-0.566271	-0.008750	0.566279	-0.824212	0.001875	-0.008273	-0.003410	0.999960	
3946														-0.199028	0.028721	9.804441	-0.818089	-0.575025	-0.008745	0.575033	-0.818128	0.001782	-0.008179	-0.003570	0.999960	
3947														-0.303113	-0.050801	9.791347	-0.812058	-0.583515	-0.008483	0.583524	-0.812094	0.001706	-0.007885	-0.003565	0.999963	
3948														-0.291593	-0.089404	9.775952	-0.806544	-0.591039	-0.008575	0.591048	-0.806581	0.001743	-0.007946	-0.003663	0.999962	
3949														-0.280073	-0.128006	9.760558	-0.801029	-0.598562	-0.008666	0.598572	-0.801067	0.001781	-0.008008	-0.003761	0.999961	
3950														-0.277256	-0.060442	9.852539	-0.795269	-0.606195	-0.008678	0.606205	-0.795307	0.001713	-0.007940	-0.003899	0.999961	
3951														-0.363932	-0.180524	9.618123	-0.790029	-0.613007	-0.008742	0.613018	-0.790067	0.001644	-0.007914	-0.004060	0.999960	
3952														-0.204670	0.018558	9.804349	-0.785001	-0.619432	-0.008803	0.619444	-0.785039	0.001645	-0.007930	-0.004161	0.999960	
3953														0.110615	0.375148	9.821197	-0.779908	-0.625832	-0.008787	0.625844	-0.779947	0.001672	-0.007900	-0.004195	0.999960	
3954														0.210870	0.274667	9.751715	-0.774005	-0.633118	-0.008833	0.633131	-0.774043	0.001674	-0.007897	-0.004296	0.999960	
3955														0.059684	0.036416	9.740916	-0.768107	-0.640260	-0.008884	0.640273	-0.768145	0.001641	-0.007875	-0.004428	0.999959	
3956														0.134177	0.069184	9.749334	-0.762627	-0.646777	-0.008922	0.646791	-0.762665	0.001645	-0.007868	-0.004516	0.999959	
3957														0.120999	0.211510	9.814730	-0.757208	-0.653112	-0.008931	0.653126	-0.757247	0.001637	-0.007833	-0.004594	0.999959	
3958														0.024286	-0.043159	9.733769	-0.752222	-0.658849	-0.008974	0.658863	-0.752261	0.001642	-0.007833	-0.004678	0.999958	
3959														-0.286200	-0.184082	9.802031	-0.747499	-0.664201	-0.009048	0.664216	-0.747539	0.001672	-0.007874	-0.004760	0.999958	
3960														0.347999	0.119510	9.741718	-0.742889	-0.669353	-0.009082	0.669369	-0.742928	0.001656	-0.007856	-0.004849	0.999957	
3961														0.120030	0.450310	9.769814	-0.737688	-0.675080	-0.009090	0.675096	-0.737728	0.001603	-0.007788	-0.004954	0.999957	
3962														0.065767	0.058762	9.831685	-0.731829	-0.681427	-0.009136	0.681444	-0.731869	0.001617	-0.007788	-0.005042	0.999957	
3963														0.024738	-0.396853	9.699082	-0.726386	-0.687226	-0.009181	0.687244	-0.726425	0.001549	-0.007734	-0.005184	0.999957	
3964														-0.001063	0.040117	9.766142	-0.721091	-0.692779	-0.009193	0.692798	-0.721130	0.001509	-0.007675	-0.005281	0.999957	
3965														0.126919	-0.033621	9.787543	-0.716151	-0.697886	-0.009145	0.697905	-0.716189	0.001477	-0.007581	-0.005325	0.999957	
3966														0.192806	-0.114530	9.788309	-0.711574	-0.702552	-0.009112	0.702571	-0.711612	0.001464	-0.007513	-0.005361	0.999957	
3967														0.110840	-0.143873	9.720640	-0.707432	-0.706721	-0.009199	0.706742	-0.707470	0.001387	-0.007488	-0.005520	0.999957	
3968														0.094995	-0.176654	9.805677	-0.704086	-0.710055	-0.009203	0.710075	-0.704125	0.001361	-0.007447	-0.005577	0.999957	
3969														0.215848	0.219775	9.780888	-0.699465	-0.714607	-0.009196	0.714629	-0.699503	0.001302	-0.007363	-0.005661	0.999957	
3970														0.296555	0.562486	9.808654	-0.694199	-0.719725	-0.009158	0.719747	-0.694235	0.001252	-0.007259	-0.005722	0.999957	
3971														0.100922	0.529677	9.775767	-0.688351	-0.725321	-0.009106	0.725343	-0.688386	0.001193	-0.007134	-0.005784	0.999958	
3972														-0.055597	-0.344226	9.811648	-0.683706	-0.729702	-0.009009	0.729724	-0.683741	0.001145	-0.006995	-0.005792	0.999959	
3973														-0.406075	-0.893232	9.689188	-0.679411	-0.733706	-0.008795	0.733727	-0.679444	0.001157	-0.006825	-0.005667	0.999961	
3974														-0.007160	-0.280883	9.848687	-0.675084	-0.737688	-0.008823	0.737709	-0.675117	0.001117	-0.006781	-0.005755	0.999960	
3975														0.123519	-0.285502	9.697045	-0.669745	-0.742537	-0.008904	0.742560	-0.669779	0.001141	-0.006811	-0.005847	0.999960	
3976														-0.011922	-0.380764	9.797578	-0.664750	-0.747013	-0.008902	0.747035	-0.664783	0.001109	-0.006746	-0.005913	0.999960	
3977														-0.057883	-0.081004	9.783608	-0.659962	-0.751246	-0.008891	0.751269	-0.659995	0.001135	-0.006721	-0.005930	0.999960	
3978														-0.228612	-0.113145	9.738245	-0.655209	-0.755396	-0.008840	0.755418	-0.655242	0.001135	-0.006649	-0.005934	0.999960	
3979														0.109811	0.271056	9.820119	-0.650746	-0.759245	-0.008776	0.759267	-0.650778	0.001125	-0.006565	-0.005931	0.999961	
3980														-0.461341	0.203177	9.784605	-0.646503	-0.762862	-0.008685	0.762884	-0.646534	0.001093	-0.006449	-0.005919	0.999962	
3981														-0.115958	0.290910	9.818212	-0.642440	-0.766286	-0.008709	0.766308	-0.642472	0.001194	-0.006510	-0.005907	0.999961	
3982														-0.026714	-0.081546	9.741791	-0.637604	-0.770315	-0.008673	0.770338	-0.637635	0.001132	-0.006403	-0.005959	0.999962	
3983														-0.086343	-0.307323	9.721908	-0.632533	-0.774485	-0.008648	0.774507	-0.632564	0.001181	-0.006385	-0.005952	0.999962	
3984														0.059636	-0.146777	9.803133	-0.627574	-0.778508	-0.008694	0.778530	-0.627606	0.001343	-0.006502	-0.005926	0.999961	
3985														-0.005738	-0.201713	9.720607	-0.622650	-0.782452	-0.008692	0.782474	-0.622682	0.001288	-0.006420	-0.005999	0.999961	
3986														0.016260	-0.325239	9.728568	-0.617893	-0.786214	-0.008715	0.786236	-0.617925	0.001335	-0.006435	-0.006027	0.999961	
3987														-0.083705	-0.116448	9.764545	-0.613133	-0.789930	-0.008805	0.789952	-0.613167	0.001520	-0.006599	-0.006023	0.999960	
3988														-0.094974	0.371758	9.826939	-0.608210	-0.793728	-0.008764	0.793750	-0.608242	0.001437	-0.006472	-0.006082	0.999961	
3989														-0.062021	0.474971	9.763299	-0.603358	-0.797422	-0.008844	0.797444	-0.603391	0.001452	-0.006495	-0.006177	0.999960	
3990														-0.028627	0.040650	9.735719	-0.598478	-0.801091	-0.008804	0.801113	-0.598511	0.001520	-0.006487	-0.006144	0.999960	
3991														0.036943	-0.387539	9.769560	-0.593681	-0.804651	-0.008904	0.804674	-0.593715	0.001455	-0.006457	-0.006301	0.999959	
3992														-0.048211	-0.375265	9.763795	-0.588967	-0.808107	-0.008947	0.808132	-0.589000	0.001371	-0.006377	-0.006422	0.999959	
3993														-0.079952	-0.088308	9.752305	-0.584227	-0.811542	-0.008902	0.811566	-0.584259	0.001330	-0.006281	-0.006448	0.999959	
3994														-0.041880	-0.111794	9.797709	-0.579798	-0.814711	-0.008957	0.814736	-0.579830	0.001337	-0.006283	-0.006523	0.999959	
3995														0.089115	-0.232637	9.813631	-0.576011	-0.817393	-0.008962	0.817418	-0.576043	0.001352	-0.006268	-0.006547	0.999959	
3996														0.109790	-0.121358	9.705363	-0.572710	-0.819710	-0.008908	0.819734	-0.572743	0.001415	-0.006262	-0.006492	0.999959	
3997														0.116280	-0.036860	9.756153	-0.569499	-0.821943	-0.008983	0.821969	-0.569531	0.001266	-0.006156	-0.006662	0.999959	
3998														0.077394	0.025356	9.772551	-0.566180	-0.824232	-0.009014	0.824259	-0.566212	0.001302	-0.006177	-0.006693	0.999959	
3999														0.115645	-0.154851	9.762279	-0.563249	-0.826237	-0.009110	0.826264	-0.563282	0.001328	-0.006229	-0.006779	0.999958	
4000														0.188718	-0.160955	9.752574	-0.560856	-0.827864	-0.009101	0.827890	-0.560888	0.001325	-0.006202	-0.006792	0.999958	
4001														0.161490	-0.115707	9.783326	-0.559716	-0.828634	-0.009116	0.828662	-0.559748	0.001277	-0.006161	-0.006839	0.999958	
4002														0.084370	-0.137822	9.790695	-0.559209	-0.828977	-0.009105	0.829004	-0.559241	0.001261	-0.006137	-0.006843	0.999958	
4003														0.228727	-0.165467	9.784691	-0.558447	-0.829491	-0.009084	0.829518	-0.558479	0.001289	-0.006143	-0.006815	0.999958	
4004														0.096629	-0.324850	9.733682	-0.558385	-0.829532	-0.009083	0.829559	-0.558418	0.001356	-0.006197	-0.006777	0.999958	
4005														-0.032458	-0.402855	9.762552	-0.558559	-0.829415	-0.009103	0.829442	-0.558592	0.001334	-0.006192	-0.006805	0.999958	
4006														-0.056014	-0.059288	9.741982	-0.558647	-0.829355	-0.009152	0.829382	-0.558680	0.001325	-0.006212	-0.006850	0.999957	
4007														-0.106888	-0.100744	9.764647	-0.558698	-0.829320	-0.009215	0.829348	-0.558731	0.001259	-0.006192	-0.006939	0.999957	
4008														-0.078449	-0.090533	9.782339	-0.558613	-0.829377	-0.009295	0.829405	-0.558646	0.001252	-0.006231	-0.007010	0.999956	
4009														-0.089064	-0.057677	9.754567	-0.558566	-0.829408	-0.009294	0.829436	-0.558600	0.001255	-0.006233	-0.007007	0.999956	
4010														-0.091032	-0.058130	9.769131	-0.558504	-0.829450	-0.009274	0.829478	-0.558538	0.001270	-0.006233	-0.006983	0.999956	
4011														-0.091575	-0.044200	9.784869	-0.558405	-0.829516	-0.009295	0.829545	-0.558438	0.001250	-0.006228	-0.007012	0.999956	
4012														-0.090141	-0.041684	9.755728	-0.558273	-0.829605	-0.009281	0.829634	-0.558306	0.001240	-0.006210	-0.007008	0.999956	
4013														-0.150745	-0.037291	9.780919	-0.558007	-0.829785	-0.009188	0.829814	-0.558039	0.001171	-0.006099	-0.006971	0.999957	
4014														-0.289729	0.036978	9.761174	-0.556950	-0.830495	-0.009167	0.830524	-0.556982	0.001140	-0.006053	-0.006978	0.999957	
4015														-0.081080	-0.084903	9.753195	-0.555549	-0.831433	-0.009193	0.831461	-0.555581	0.001238	-0.006137	-0.006956	0.999957	
4016														-0.356313	-0.015413	9.752430	-0.554038	-0.832440	-0.009273	0.832468	-0.554071	0.001309	-0.006228	-0.006994	0.999956	
4017														-0.200617	-0.060685	9.760953	-0.552205	-0.833654	-0.009453	0.833684	-0.552240	0.001300	-0.006304	-0.007163	0.999954	
4018														-0.036176	-0.003773	9.777740	-0.550441	-0.834819	-0.009612	0.834849	-0.550477	0.001376	-0.006440	-0.007267	0.999953	
4019														-0.063857	0.014593	9.747773	-0.548684	-0.835972	-0.009815	0.836005	-0.548721	0.001337	-0.006504	-0.007472	0.999951	
4020														0.176294	-0.080369	9.758917	-0.547264	-0.836902	-0.009831	0.836934	-0.547301	0.001355	-0.006514	-0.007486	0.999951	
4021														-0.089128	-0.099306	9.722790	-0.546143	-0.837635	-0.009772	0.837667	-0.546180	0.001413	-0.006521	-0.007414	0.999951	
4022														-0.198690	-0.109869	9.787412	-0.545051	-0.838346	-0.009780	0.838378	-0.545088	0.001455	-0.006551	-0.007406	0.999951	
4023														-0.256249	-0.089903	9.784557	-0.544448	-0.838739	-0.009688	0.838770	-0.544484	0.001392	-0.006443	-0.007368	0.999952	
4024														-0.100173	0.003908	9.759116	-0.544365	-0.838792	-0.009717	0.838823	-0.544402	0.001468	-0.006521	-0.007351	0.999952	
4025														-0.104542	-0.052506	9.739859	-0.544598	-0.838642	-0.009661	0.838672	-0.544634	0.001439	-0.006469	-0.007319	0.999952	
4026														0.144551	-0.016975	9.790837	-0.545378	-0.838133	-0.009798	0.838165	-0.545415	0.001392	-0.006511	-0.007453	0.999951	
4027														0.092101	0.034852	9.746615	-0.545507	-0.838049	-0.009734	0.838081	-0.545544	0.001399	-0.006483	-0.007395	0.999952	
4028														0.017630	-0.122744	9.773410	-0.545514	-0.838046	-0.009679	0.838077	-0.545550	0.001369	-0.006428	-0.007365	0.999952	
4029														-0.065739	-0.042733	9.787747	-0.545139	-0.838291	-0.009607	0.838321	-0.545175	0.001407	-0.006417	-0.007287	0.999953	
4030														0.006283	-0.074322	9.761357	-0.544487	-0.838716	-0.009517	0.838745	-0.544522	0.001458	-0.006405	-0.007189	0.999954	
4031														0.019148	-0.088608	9.761221	-0.544077	-0.838982	-0.009420	0.839011	-0.544113	0.001476	-0.006364	-0.007100	0.999955	
4032														-0.052190	-0.052557	9.758470	-0.544012	-0.839025	-0.009415	0.839053	-0.544047	0.001495	-0.006377	-0.007087	0.999955	
4033														-0.115337	-0.105880	9.749751	-0.544152	-0.838934	-0.009429	0.838963	-0.544186	0.001379	-0.006288	-0.007160	0.999955	
4034														-0.158887	-0.429112	9.781452	-0.544087	-0.838976	-0.009410	0.839005	-0.544122	0.001394	-0.006290	-0.007137	0.999955	
4035														0.072246	0.397213	9.742283	-0.544250	-0.838871	-0.009351	0.838900	-0.544283	0.001321	-0.006198	-0.007125	0.999955	
4036														-0.069570	-0.050834	9.772016	-0.544253	-0.838869	-0.009355	0.838898	-0.544287	0.001307	-0.006188	-0.007137	0.999955	
4037														-0.071423	-0.064909	9.770855	-0.544258	-0.838866	-0.009341	0.838895	-0.544291	0.001303	-0.006177	-0.007127	0.999956	
4038														-0.084702	-0.047553	9.756421	-0.544261	-0.838864	-0.009352	0.838893	-0.544295	0.001321	-0.006199	-0.007126	0.999955	
4039														-0.087834	-0.049162	9.785549	-0.544283	-0.838850	-0.009338	0.838879	-0.544317	0.001316	-0.006187	-0.007117	0.999956	
4040														-0.074119	-0.049529	9.786570	-0.544290	-0.838845	-0.009298	0.838874	-0.544324	0.001353	-0.006196	-0.007063	0.999956	
4041														-0.072813	-0.046726	9.757433	-0.544258	-0.838866	-0.009316	0.838895	-0.544291	0.001344	-0.006199	-0.007084	0.999956	
4042														-0.103827	-0.044971	9.769940	-0.544246	-0.838875	-0.009287	0.838903	-0.544279	0.001338	-0.006177	-0.007063	0.999956	
4043														-0.089957	-0.045391	9.770966	-0.544269	-0.838860	-0.009254	0.838888	-0.544302	0.001344	-0.006165	-0.007032	0.999956	
4044														-0.089609	-0.057172	9.740675	-0.544273	-0.838857	-0.009255	0.838886	-0.544306	0.001344	-0.006165	-0.007032	0.999956	
4045														-0.090349	-0.043145	9.756390	-0.544277	-0.838855	-0.009229	0.838883	-0.544310	0.001322	-0.006133	-0.007023	0.999957	
4046														-0.077555	-0.044892	9.771985	-0.544280	-0.838853	-0.009234	0.838881	-0.544313	0.001307	-0.006123	-0.007034	0.999957	
4047														-0.078373	-0.044454	9.771981	-0.544267	-0.838862	-0.009234	0.838890	-0.544299	0.001309	-0.006124	-0.007034	0.999957	
4048														-0.078002	-0.029248	9.773128	-0.544290	-0.838847	-0.009190	0.838875	-0.544322	0.001296	-0.006090	-0.007004	0.999957	
4049														-0.078546	-0.042002	9.757410	-0.544278	-0.838855	-0.009161	0.838883	-0.544310	0.001290	-0.006068	-0.006983	0.999957	
4050														-0.079411	-0.041512	9.757405	-0.544297	-0.838842	-0.009191	0.838870	-0.544330	0.001297	-0.006091	-0.007004	0.999957	
4051														-0.082569	-0.043211	9.786532	-0.544319	-0.838828	-0.009177	0.838856	-0.544351	0.001292	-0.006079	-0.006995	0.999957	
4052														-0.068748	-0.057327	9.771855	-0.544358	-0.838803	-0.009178	0.838831	-0.544390	0.001290	-0.006079	-0.006996	0.999957	
4053														-0.097667	-0.053427	9.755202	-0.544344	-0.838812	-0.009174	0.838840	-0.544377	0.001306	-0.006090	-0.006985	0.999957	
4054														-0.068334	-0.040556	9.758428	-0.544349	-0.838809	-0.009160	0.838837	-0.544381	0.001303	-0.006079	-0.006975	0.999957	
4055														-0.083711	-0.038872	9.757380	-0.544352	-0.838807	-0.009160	0.838835	-0.544385	0.001303	-0.006080	-0.006975	0.999957	
4056														-0.085648	-0.039507	9.771941	-0.544390	-0.838782	-0.009165	0.838810	-0.544423	0.001286	-0.006069	-0.006987	0.999957	
4057														-0.071923	-0.053717	9.757272	-0.544394	-0.838780	-0.009177	0.838808	-0.544426	0.001305	-0.006091	-0.006987	0.999957	
4058														-0.071849	-0.038865	9.758409	-0.544377	-0.838790	-0.009214	0.838818	-0.544410	0.001285	-0.006094	-0.007029	0.999957	
4059														-0.088365	-0.038351	9.771922	-0.544383	-0.838787	-0.009181	0.838815	-0.544415	0.001292	-0.006082	-0.006998	0.999957	
4060														-0.076737	-0.054524	9.786392	-0.544403	-0.838773	-0.009185	0.838802	-0.544436	0.001277	-0.006072	-0.007009	0.999957	
4061														-0.060776	-0.053256	9.758307	-0.544387	-0.838783	-0.009219	0.838812	-0.544420	0.001271	-0.006085	-0.007041	0.999957	
4062														-0.076357	-0.038280	9.772956	-0.544391	-0.838781	-0.009219	0.838810	-0.544424	0.001272	-0.006086	-0.007041	0.999957	
4063														-0.077122	-0.037899	9.772952	-0.544393	-0.838779	-0.009227	0.838808	-0.544426	0.001242	-0.006066	-0.007063	0.999957	
4064														-0.078048	-0.037565	9.772946	-0.544396	-0.838777	-0.009253	0.838806	-0.544429	0.001265	-0.006099	-0.007073	0.999956	
4065														-0.065349	-0.066434	9.757152	-0.544416	-0.838764	-0.009261	0.838793	-0.544448	0.001235	-0.006078	-0.007096	0.999956	
4066														-0.065062	-0.051383	9.758289	-0.544421	-0.838761	-0.009243	0.838790	-0.544453	0.001246	-0.006078	-0.007075	0.999957	
4067														-0.064883	-0.036220	9.759425	-0.544424	-0.838759	-0.009244	0.838788	-0.544457	0.001247	-0.006079	-0.007075	0.999956	
4068														-0.082492	-0.050236	9.771787	-0.544445	-0.838745	-0.009244	0.838774	-0.544478	0.001246	-0.006079	-0.007075	0.999956	
4069														-0.082101	-0.048593	9.757218	-0.544450	-0.838743	-0.009215	0.838771	-0.544482	0.001239	-0.006057	-0.007055	0.999957	
4070														-0.082856	-0.048003	9.757215	-0.544454	-0.838740	-0.009215	0.838769	-0.544486	0.001240	-0.006058	-0.007055	0.999957	
4071														-0.084806	-0.062132	9.756074	-0.544456	-0.838738	-0.009231	0.838767	-0.544489	0.001244	-0.006069	-0.007065	0.999957	
4072														-0.086813	-0.062700	9.770635	-0.544478	-0.838724	-0.009216	0.838753	-0.544510	0.001240	-0.006058	-0.007055	0.999957	
4073														-0.072028	-0.048812	9.772832	-0.544480	-0.838723	-0.009235	0.838752	-0.544512	0.001229	-0.006060	-0.007077	0.999957	
4074														-0.057184	-0.048479	9.759332	-0.544466	-0.838732	-0.009235	0.838761	-0.544498	0.001231	-0.006061	-0.007076	0.999957	
4075														-0.073718	-0.047875	9.772824	-0.544453	-0.838741	-0.009221	0.838770	-0.544485	0.001229	-0.006051	-0.007065	0.999957	
4076														-0.076701	-0.062845	9.786255	-0.544458	-0.838738	-0.009202	0.838767	-0.544490	0.001241	-0.006051	-0.007043	0.999957	
4077														-0.075202	-0.060097	9.757122	-0.544462	-0.838735	-0.009188	0.838764	-0.544494	0.001237	-0.006041	-0.007033	0.999957	
4078														-0.075044	-0.045042	9.758249	-0.544482	-0.838722	-0.009203	0.838751	-0.544514	0.001241	-0.006052	-0.007044	0.999957	
4079														-0.079249	-0.074685	9.770549	-0.544486	-0.838719	-0.009196	0.838748	-0.544519	0.001271	-0.006073	-0.007021	0.999957	
4080														-0.079188	-0.046159	9.787369	-0.544488	-0.838718	-0.009208	0.838747	-0.544520	0.001227	-0.006043	-0.007055	0.999957	
4081														-0.079908	-0.046046	9.787364	-0.544506	-0.838706	-0.009246	0.838735	-0.544539	0.001205	-0.006045	-0.007099	0.999957	
4082														-0.079727	-0.044609	9.772793	-0.544493	-0.838714	-0.009238	0.838743	-0.544526	0.001236	-0.006067	-0.007075	0.999957	
4083														-0.080492	-0.057479	9.757095	-0.544497	-0.838712	-0.009224	0.838741	-0.544530	0.001233	-0.006057	-0.007065	0.999957	
4084														-0.066883	-0.044509	9.773866	-0.544518	-0.838698	-0.009224	0.838727	-0.544551	0.001233	-0.006057	-0.007066	0.999957	
4085														-0.069860	-0.059695	9.787301	-0.544538	-0.838685	-0.009229	0.838714	-0.544571	0.001217	-0.006047	-0.007077	0.999957	
4086														-0.081754	-0.055034	9.742519	-0.544524	-0.838694	-0.009229	0.838723	-0.544557	0.001219	-0.006048	-0.007076	0.999957	
4087														-0.066998	-0.041004	9.744726	-0.544511	-0.838703	-0.009214	0.838732	-0.544543	0.001217	-0.006038	-0.007065	0.999957	
4088														-0.070090	-0.042602	9.773853	-0.544514	-0.838701	-0.009218	0.838730	-0.544546	0.001203	-0.006029	-0.007076	0.999957	
4089														-0.085412	-0.054716	9.757070	-0.544533	-0.838688	-0.009248	0.838718	-0.544565	0.001210	-0.006051	-0.007097	0.999957	
4090														-0.069475	-0.053221	9.729025	-0.544538	-0.838686	-0.009230	0.838715	-0.544570	0.001222	-0.006051	-0.007076	0.999957	
4091														-0.073737	-0.055863	9.772716	-0.544540	-0.838684	-0.009238	0.838713	-0.544572	0.001194	-0.006032	-0.007098	0.999957	
4092														-0.071046	-0.052406	9.729018	-0.544542	-0.838682	-0.009253	0.838712	-0.544574	0.001198	-0.006044	-0.007108	0.999956	
4093														-0.059685	-0.055180	9.759237	-0.544545	-0.838681	-0.009257	0.838710	-0.544577	0.001184	-0.006034	-0.007119	0.999956	
4094														-0.090987	-0.040111	9.787293	-0.544566	-0.838667	-0.009257	0.838697	-0.544598	0.001184	-0.006035	-0.007119	0.999956	
4095														-0.062478	-0.055244	9.773797	-0.544552	-0.838676	-0.009243	0.838705	-0.544584	0.001182	-0.006025	-0.007108	0.999957	
4096														-0.074475	-0.037032	9.744688	-0.544555	-0.838674	-0.009246	0.838704	-0.544587	0.001168	-0.006015	-0.007119	0.999957	
4097														-0.063184	-0.039841	9.774910	-0.544539	-0.838684	-0.009276	0.838714	-0.544571	0.001177	-0.006039	-0.007139	0.999956	
4098														-0.078533	-0.051919	9.758121	-0.544560	-0.838671	-0.009277	0.838700	-0.544592	0.001177	-0.006040	-0.007140	0.999956	
4099														-0.094021	-0.050525	9.757013	-0.544561	-0.838670	-0.009310	0.838700	-0.544593	0.001171	-0.006052	-0.007171	0.999956	
4100														-0.065920	-0.052415	9.759212	-0.544545	-0.838680	-0.009340	0.838710	-0.544578	0.001180	-0.006076	-0.007191	0.999956	
4101														-0.053513	-0.054225	9.774877	-0.544547	-0.838678	-0.009359	0.838708	-0.544580	0.001170	-0.006078	-0.007212	0.999956	
4102														-0.083724	-0.038189	9.788341	-0.544568	-0.838665	-0.009359	0.838695	-0.544600	0.001170	-0.006078	-0.007212	0.999956	
4103														-0.075125	-0.043038	9.656144	-0.544569	-0.838663	-0.009400	0.838694	-0.544602	0.001197	-0.006123	-0.007232	0.999955	
4104														-0.049037	-0.087866	9.831992	-0.544565	-0.838664	-0.009523	0.838695	-0.544599	0.001213	-0.006203	-0.007326	0.999954	
4105														-0.150118	-0.051074	10.017987	-0.544571	-0.838661	-0.009475	0.838692	-0.544605	0.001218	-0.006181	-0.007283	0.999954	
4106														-0.112430	-0.030440	9.536277	-0.544579	-0.838657	-0.009397	0.838687	-0.544612	0.001215	-0.006136	-0.007220	0.999955	
4107														0.032543	-0.054078	9.723291	-0.544575	-0.838658	-0.009520	0.838689	-0.544609	0.001231	-0.006217	-0.007314	0.999954	
4108														-0.037691	-0.059172	9.849896	-0.544596	-0.838644	-0.009520	0.838675	-0.544630	0.001231	-0.006217	-0.007314	0.999954	
4109														-0.175046	-0.026504	9.737883	-0.544598	-0.838643	-0.009550	0.838674	-0.544632	0.001239	-0.006240	-0.007335	0.999954	
4110														-0.083468	-0.055464	9.846531	-0.544615	-0.838631	-0.009599	0.838663	-0.544650	0.001235	-0.006264	-0.007377	0.999953	
4111														0.024701	-0.056273	9.766998	-0.544636	-0.838618	-0.009599	0.838649	-0.544671	0.001235	-0.006265	-0.007378	0.999953	
4112														-0.103628	-0.043260	9.713209	-0.544657	-0.838604	-0.009585	0.838635	-0.544692	0.001232	-0.006254	-0.007367	0.999953	
4113														-0.155441	-0.046014	9.797205	-0.544622	-0.838626	-0.009633	0.838658	-0.544657	0.001232	-0.006279	-0.007408	0.999953	
4114														-0.053702	-0.038310	9.806182	-0.544661	-0.838601	-0.009637	0.838632	-0.544697	0.001279	-0.006322	-0.007386	0.999953	
4115														-0.065285	-0.060503	9.730015	-0.544666	-0.838598	-0.009615	0.838629	-0.544702	0.001306	-0.006332	-0.007352	0.999953	
4116														-0.096789	-0.045380	9.757990	-0.544668	-0.838597	-0.009634	0.838628	-0.544703	0.001296	-0.006335	-0.007373	0.999953	
4117														-0.073389	-0.051127	9.818494	-0.544654	-0.838606	-0.009630	0.838637	-0.544689	0.001313	-0.006346	-0.007360	0.999953	
4118														-0.084949	-0.059845	9.758000	-0.544659	-0.838603	-0.009597	0.838634	-0.544694	0.001322	-0.006336	-0.007328	0.999953	
4119														-0.070355	-0.045642	9.760238	-0.544627	-0.838623	-0.009608	0.838654	-0.544663	0.001343	-0.006360	-0.007326	0.999953	
4120														-0.119444	-0.059891	9.799408	-0.544628	-0.838622	-0.009619	0.838654	-0.544664	0.001301	-0.006330	-0.007359	0.999953	
4121														-0.086450	-0.043637	9.759095	-0.544635	-0.838618	-0.009564	0.838649	-0.544671	0.001335	-0.006328	-0.007294	0.999953	
4122														-0.070588	-0.028255	9.746772	-0.544656	-0.838605	-0.009564	0.838636	-0.544691	0.001335	-0.006329	-0.007294	0.999953	
4123														-0.073650	-0.043422	9.760224	-0.544658	-0.838603	-0.009579	0.838634	-0.544693	0.001340	-0.006341	-0.007304	0.999953	
4124														-0.076714	-0.058586	9.773676	-0.544661	-0.838601	-0.009579	0.838632	-0.544696	0.001341	-0.006342	-0.007303	0.999953	
4125														-0.091271	-0.042553	9.773634	-0.544663	-0.838600	-0.009594	0.838631	-0.544699	0.001346	-0.006355	-0.007313	0.999953	
4126														-0.089606	-0.040018	9.744505	-0.544667	-0.838598	-0.009569	0.838628	-0.544702	0.001325	-0.006324	-0.007303	0.999953	
4127														-0.063711	-0.043550	9.775912	-0.544652	-0.838607	-0.009580	0.838638	-0.544688	0.001347	-0.006347	-0.007300	0.999953	
4128														-0.076657	-0.039844	9.745640	-0.544675	-0.838593	-0.009536	0.838623	-0.544710	0.001336	-0.006314	-0.007269	0.999954	
4129														-0.072248	-0.045450	9.771419	-0.544686	-0.838586	-0.009549	0.838617	-0.544720	0.001315	-0.006305	-0.007291	0.999954	
4130														-0.067839	-0.051055	9.797198	-0.544696	-0.838579	-0.009562	0.838610	-0.544731	0.001295	-0.006295	-0.007314	0.999953	
4131														-0.094425	-0.052177	9.743378	-0.544682	-0.838588	-0.009558	0.838619	-0.544717	0.001314	-0.006308	-0.007299	0.999953	
4132														-0.068649	-0.055788	9.774795	-0.544683	-0.838587	-0.009576	0.838618	-0.544718	0.001305	-0.006311	-0.007320	0.999953	
4133														-0.085107	-0.068866	9.772541	-0.544670	-0.838596	-0.009568	0.838627	-0.544705	0.001338	-0.006333	-0.007295	0.999953	
4134														-0.098764	-0.038166	9.773579	-0.544690	-0.838583	-0.009573	0.838614	-0.544725	0.001323	-0.006324	-0.007308	0.999953	
4135														-0.085066	-0.038781	9.774726	-0.544674	-0.838593	-0.009588	0.838624	-0.544709	0.001330	-0.006338	-0.007316	0.999953	
4136														-0.084394	-0.050832	9.744501	-0.544695	-0.838579	-0.009573	0.838610	-0.544730	0.001326	-0.006327	-0.007305	0.999953	
4137														-0.070743	-0.051498	9.745652	-0.544695	-0.838579	-0.009620	0.838610	-0.544730	0.001324	-0.006351	-0.007346	0.999953	
4138														-0.088645	-0.052364	9.773611	-0.544679	-0.838589	-0.009628	0.838621	-0.544715	0.001297	-0.006333	-0.007368	0.999953	
4139														-0.062833	-0.055889	9.805048	-0.544683	-0.838587	-0.009621	0.838618	-0.544719	0.001329	-0.006355	-0.007345	0.999953	
4140														-0.072497	-0.035598	9.746734	-0.544686	-0.838585	-0.009605	0.838616	-0.544722	0.001327	-0.006345	-0.007332	0.999953	
4141														-0.088368	-0.020555	9.761221	-0.544688	-0.838584	-0.009630	0.838615	-0.544724	0.001351	-0.006379	-0.007340	0.999953	
4142														-0.077576	-0.064781	9.759096	-0.544674	-0.838593	-0.009627	0.838624	-0.544710	0.001368	-0.006391	-0.007329	0.999953	
4143														-0.063366	-0.037071	9.777005	-0.544677	-0.838591	-0.009627	0.838622	-0.544712	0.001370	-0.006393	-0.007327	0.999953	
4144														-0.062374	-0.062742	9.731134	-0.544661	-0.838601	-0.009641	0.838632	-0.544697	0.001376	-0.006406	-0.007336	0.999953	
4145														-0.094008	-0.047794	9.759006	-0.544681	-0.838588	-0.009642	0.838619	-0.544717	0.001377	-0.006407	-0.007336	0.999953	
4146														-0.081542	-0.049297	9.774731	-0.544666	-0.838597	-0.009642	0.838628	-0.544702	0.001380	-0.006409	-0.007334	0.999953	
4147														-0.082405	-0.048701	9.774727	-0.544688	-0.838583	-0.009623	0.838614	-0.544724	0.001392	-0.006409	-0.007312	0.999953	
4148														-0.082969	-0.061726	9.759072	-0.544673	-0.838593	-0.009638	0.838624	-0.544709	0.001397	-0.006422	-0.007321	0.999953	
4149														-0.069842	-0.048839	9.775889	-0.544673	-0.838593	-0.009682	0.838624	-0.544709	0.001410	-0.006457	-0.007351	0.999952	
4150														-0.073990	-0.048125	9.771949	-0.544657	-0.838603	-0.009705	0.838634	-0.544694	0.001418	-0.006475	-0.007366	0.999952	
4151														-0.078138	-0.047411	9.768010	-0.544641	-0.838613	-0.009727	0.838644	-0.544678	0.001426	-0.006494	-0.007381	0.999952	
4152														-0.070288	-0.045748	9.746752	-0.544680	-0.838588	-0.009702	0.838619	-0.544716	0.001404	-0.006462	-0.007371	0.999952	
4153														-0.071085	-0.045004	9.746749	-0.544685	-0.838585	-0.009676	0.838616	-0.544722	0.001447	-0.006484	-0.007327	0.999952	
4154														-0.075694	-0.047651	9.790426	-0.544701	-0.838574	-0.009721	0.838605	-0.544738	0.001395	-0.006465	-0.007392	0.999952	
4155														-0.087665	-0.029918	9.761203	-0.544686	-0.838584	-0.009720	0.838615	-0.544723	0.001399	-0.006468	-0.007389	0.999952	
4156														-0.074781	-0.044920	9.761296	-0.544707	-0.838570	-0.009706	0.838601	-0.544744	0.001396	-0.006458	-0.007379	0.999952	
4157														-0.060969	-0.045284	9.762479	-0.544693	-0.838579	-0.009691	0.838610	-0.544730	0.001395	-0.006449	-0.007367	0.999952	
4158														-0.078911	-0.045849	9.790409	-0.544695	-0.838578	-0.009705	0.838609	-0.544732	0.001400	-0.006461	-0.007376	0.999952	
4159														-0.092552	-0.057140	9.759014	-0.544715	-0.838565	-0.009702	0.838597	-0.544751	0.001353	-0.006420	-0.007399	0.999952	
4160														-0.080056	-0.058657	9.774758	-0.544665	-0.838598	-0.009708	0.838629	-0.544701	0.001392	-0.006455	-0.007383	0.999952	
4161														-0.080223	-0.043519	9.775834	-0.544685	-0.838585	-0.009708	0.838616	-0.544721	0.001392	-0.006456	-0.007383	0.999952	
4162														-0.081084	-0.042927	9.775830	-0.544689	-0.838582	-0.009689	0.838613	-0.544725	0.001405	-0.006456	-0.007360	0.999952	
4163														-0.095717	-0.068545	9.743352	-0.544691	-0.838581	-0.009689	0.838612	-0.544728	0.001407	-0.006458	-0.007359	0.999952	
4164														-0.084068	-0.042744	9.790380	-0.544713	-0.838567	-0.009671	0.838598	-0.544749	0.001419	-0.006459	-0.007337	0.999952	
4165														-0.067790	-0.041033	9.762453	-0.544699	-0.838576	-0.009656	0.838607	-0.544735	0.001419	-0.006450	-0.007325	0.999952	
4166														-0.097852	-0.038601	9.760053	-0.544683	-0.838586	-0.009666	0.838617	-0.544720	0.001441	-0.006474	-0.007322	0.999952	
4167														-0.086893	-0.041150	9.790362	-0.544684	-0.838585	-0.009695	0.838616	-0.544721	0.001450	-0.006497	-0.007341	0.999952	
4168														-0.072828	-0.055234	9.775921	-0.544705	-0.838572	-0.009680	0.838603	-0.544741	0.001447	-0.006486	-0.007329	0.999952	
4169														-0.069206	-0.023637	9.748951	-0.544707	-0.838571	-0.009675	0.838602	-0.544743	0.001400	-0.006445	-0.007351	0.999952	
4170														-0.087496	-0.052384	9.760153	-0.544693	-0.838580	-0.009668	0.838611	-0.544729	0.001433	-0.006468	-0.007327	0.999952	
4171														-0.072629	-0.051605	9.746793	-0.544679	-0.838589	-0.009649	0.838619	-0.544716	0.001447	-0.006469	-0.007304	0.999952	
4172														-0.089279	-0.051132	9.760144	-0.544681	-0.838588	-0.009651	0.838619	-0.544717	0.001434	-0.006460	-0.007313	0.999952	
4173														-0.087003	-0.048072	9.771629	-0.544675	-0.838592	-0.009642	0.838622	-0.544711	0.001441	-0.006461	-0.007302	0.999952	
4174														-0.084727	-0.045011	9.783115	-0.544669	-0.838596	-0.009633	0.838626	-0.544706	0.001448	-0.006462	-0.007290	0.999953	
4175														-0.076522	-0.035842	9.762409	-0.544689	-0.838583	-0.009644	0.838613	-0.544726	0.001471	-0.006487	-0.007286	0.999952	
4176														-0.064977	-0.051908	9.777103	-0.544691	-0.838581	-0.009647	0.838612	-0.544727	0.001458	-0.006478	-0.007296	0.999952	
4177														-0.094104	-0.035044	9.775744	-0.544676	-0.838591	-0.009646	0.838622	-0.544712	0.001460	-0.006479	-0.007294	0.999952	
4178														-0.095801	-0.049141	9.774668	-0.544696	-0.838578	-0.009647	0.838609	-0.544732	0.001462	-0.006481	-0.007294	0.999952	
4179														-0.095340	-0.047604	9.760104	-0.544664	-0.838599	-0.009632	0.838629	-0.544701	0.001463	-0.006473	-0.007281	0.999953	
4180														-0.069626	-0.050926	9.791649	-0.544683	-0.838587	-0.009646	0.838617	-0.544720	0.001468	-0.006485	-0.007290	0.999952	
4181														-0.083832	-0.048479	9.775868	-0.544687	-0.838584	-0.009628	0.838614	-0.544723	0.001482	-0.006488	-0.007267	0.999953	
4182														-0.068738	-0.047699	9.762526	-0.544691	-0.838582	-0.009599	0.838612	-0.544728	0.001477	-0.006468	-0.007245	0.999953	
4183														-0.084468	-0.032556	9.776927	-0.544712	-0.838568	-0.009584	0.838598	-0.544748	0.001474	-0.006456	-0.007234	0.999953	
4184														-0.070309	-0.046561	9.762520	-0.544661	-0.838601	-0.009597	0.838631	-0.544698	0.001483	-0.006472	-0.007241	0.999953	
4185														-0.086172	-0.031722	9.776915	-0.544680	-0.838589	-0.009605	0.838619	-0.544716	0.001455	-0.006452	-0.007263	0.999953	
4186														-0.086468	-0.045156	9.761287	-0.544697	-0.838577	-0.009641	0.838608	-0.544733	0.001435	-0.006455	-0.007304	0.999952	
4187														-0.088677	-0.045814	9.775838	-0.544683	-0.838587	-0.009638	0.838617	-0.544720	0.001454	-0.006469	-0.007291	0.999952	
4188														-0.075891	-0.060807	9.775996	-0.544702	-0.838574	-0.009654	0.838604	-0.544739	0.001458	-0.006481	-0.007301	0.999952	
4189														-0.073904	-0.030207	9.763558	-0.544704	-0.838573	-0.009652	0.838603	-0.544741	0.001459	-0.006482	-0.007300	0.999952	
4190														-0.091005	-0.057944	9.760200	-0.544706	-0.838571	-0.009647	0.838602	-0.544743	0.001475	-0.006492	-0.007287	0.999952	
4191														-0.089925	-0.041722	9.746697	-0.544727	-0.838558	-0.009641	0.838588	-0.544764	0.001506	-0.006515	-0.007264	0.999952	
4192														-0.080139	-0.044824	9.791598	-0.544732	-0.838555	-0.009606	0.838585	-0.544768	0.001515	-0.006504	-0.007231	0.999953	
4193														-0.078367	-0.042310	9.762478	-0.544732	-0.838555	-0.009626	0.838585	-0.544769	0.001506	-0.006507	-0.007251	0.999953	
4194														-0.081333	-0.057496	9.775972	-0.544718	-0.838564	-0.009627	0.838594	-0.544755	0.001510	-0.006510	-0.007251	0.999953	
4195														-0.082253	-0.056948	9.775968	-0.544720	-0.838563	-0.009622	0.838592	-0.544757	0.001526	-0.006522	-0.007238	0.999953	
4196														-0.096391	-0.054591	9.760167	-0.544722	-0.838561	-0.009626	0.838591	-0.544759	0.001514	-0.006514	-0.007248	0.999953	
4197														-0.082534	-0.055147	9.761401	-0.544723	-0.838561	-0.009633	0.838591	-0.544759	0.001488	-0.006495	-0.007268	0.999952	
4198														-0.084544	-0.055803	9.775955	-0.544724	-0.838560	-0.009636	0.838590	-0.544761	0.001477	-0.006488	-0.007276	0.999952	
4199														-0.072193	-0.057120	9.791749	-0.544727	-0.838558	-0.009629	0.838588	-0.544764	0.001509	-0.006511	-0.007252	0.999953	
4200														-0.085865	-0.068323	9.760333	-0.544729	-0.838557	-0.009631	0.838587	-0.544766	0.001497	-0.006502	-0.007261	0.999952	
4201														-0.084319	-0.024124	9.763490	-0.544748	-0.838544	-0.009631	0.838574	-0.544785	0.001499	-0.006504	-0.007260	0.999952	
4202														-0.088047	-0.053701	9.775936	-0.544788	-0.838518	-0.009614	0.838548	-0.544825	0.001511	-0.006505	-0.007239	0.999953	
4203														-0.087605	-0.052127	9.761374	-0.544755	-0.838540	-0.009613	0.838570	-0.544792	0.001516	-0.006508	-0.007236	0.999953	
4204														-0.090405	-0.067257	9.774875	-0.544757	-0.838539	-0.009606	0.838569	-0.544794	0.001486	-0.006479	-0.007246	0.999953	
4205														-0.074466	-0.052225	9.762614	-0.544740	-0.838550	-0.009622	0.838580	-0.544777	0.001478	-0.006482	-0.007264	0.999953	
4206														-0.074507	-0.037195	9.763661	-0.544744	-0.838547	-0.009608	0.838577	-0.544780	0.001476	-0.006472	-0.007253	0.999953	
4207														-0.076043	-0.051189	9.762608	-0.544730	-0.838557	-0.009593	0.838587	-0.544766	0.001476	-0.006463	-0.007240	0.999953	
4208														-0.077681	-0.065289	9.761554	-0.544749	-0.838544	-0.009608	0.838574	-0.544785	0.001481	-0.006476	-0.007250	0.999953	
4209														-0.092393	-0.049409	9.761344	-0.544768	-0.838532	-0.009608	0.838562	-0.544805	0.001482	-0.006477	-0.007250	0.999953	
4210														-0.095339	-0.064488	9.774847	-0.544752	-0.838542	-0.009607	0.838572	-0.544789	0.001486	-0.006480	-0.007247	0.999953	
4211														-0.064886	-0.050248	9.763847	-0.544753	-0.838541	-0.009614	0.838571	-0.544790	0.001459	-0.006461	-0.007268	0.999953	
4212														-0.080168	-0.049066	9.762586	-0.544755	-0.838540	-0.009617	0.838571	-0.544791	0.001446	-0.006452	-0.007277	0.999953	
4213														-0.081743	-0.063116	9.761536	-0.544758	-0.838538	-0.009599	0.838568	-0.544794	0.001459	-0.006453	-0.007254	0.999953	
4214														-0.067980	-0.063321	9.762794	-0.544760	-0.838537	-0.009583	0.838567	-0.544797	0.001459	-0.006444	-0.007242	0.999953	
4215														-0.082441	-0.047400	9.762575	-0.544780	-0.838524	-0.009576	0.838554	-0.544816	0.001427	-0.006414	-0.007253	0.999953	
4216														-0.084059	-0.061401	9.761527	-0.544784	-0.838522	-0.009565	0.838552	-0.544820	0.001474	-0.006447	-0.007217	0.999953	
4217														-0.086964	-0.048098	9.791678	-0.544767	-0.838533	-0.009563	0.838562	-0.544804	0.001478	-0.006449	-0.007214	0.999953	
4218														-0.085191	-0.045775	9.762559	-0.544804	-0.838509	-0.009583	0.838539	-0.544840	0.001467	-0.006451	-0.007236	0.999953	
4219														-0.087422	-0.046214	9.777110	-0.544825	-0.838495	-0.009561	0.838525	-0.544861	0.001494	-0.006462	-0.007203	0.999953	
4220														-0.060056	-0.061833	9.778601	-0.544810	-0.838505	-0.009572	0.838535	-0.544846	0.001516	-0.006487	-0.007200	0.999953	
4221														-0.073478	-0.044984	9.763812	-0.544793	-0.838516	-0.009575	0.838545	-0.544830	0.001506	-0.006479	-0.007209	0.999953	
4222														-0.075671	-0.045463	9.778363	-0.544814	-0.838502	-0.009572	0.838532	-0.544851	0.001523	-0.006492	-0.007197	0.999953	
4223														-0.090465	-0.057719	9.761492	-0.544834	-0.838490	-0.009560	0.838519	-0.544870	0.001505	-0.006471	-0.007196	0.999953	
4224														-0.090428	-0.042699	9.762526	-0.544836	-0.838488	-0.009564	0.838517	-0.544873	0.001493	-0.006463	-0.007206	0.999953	
4225														-0.076569	-0.042989	9.763797	-0.544822	-0.838498	-0.009534	0.838527	-0.544858	0.001490	-0.006444	-0.007182	0.999953	
4226														-0.079505	-0.058059	9.777312	-0.544840	-0.838485	-0.009564	0.838515	-0.544876	0.001498	-0.006467	-0.007204	0.999953	
4227														-0.079257	-0.056807	9.762749	-0.544823	-0.838496	-0.009593	0.838526	-0.544859	0.001509	-0.006492	-0.007222	0.999953	
4228														-0.080775	-0.042741	9.778335	-0.544843	-0.838484	-0.009578	0.838513	-0.544879	0.001507	-0.006483	-0.007210	0.999953	
4229														-0.080303	-0.041185	9.763775	-0.544844	-0.838483	-0.009573	0.838512	-0.544881	0.001524	-0.006494	-0.007197	0.999953	
4230														-0.081793	-0.055186	9.762737	-0.544847	-0.838481	-0.009547	0.838511	-0.544883	0.001505	-0.006464	-0.007185	0.999953	
4231														-0.067919	-0.027342	9.780638	-0.544829	-0.838492	-0.009575	0.838522	-0.544866	0.001516	-0.006488	-0.007203	0.999953	
4232														-0.083638	-0.054303	9.762727	-0.544831	-0.838491	-0.009572	0.838521	-0.544868	0.001533	-0.006501	-0.007191	0.999953	
4233														-0.083827	-0.039170	9.763753	-0.544851	-0.838478	-0.009571	0.838508	-0.544887	0.001535	-0.006502	-0.007189	0.999953	
4234														-0.070023	-0.039602	9.765036	-0.544832	-0.838490	-0.009576	0.838520	-0.544869	0.001509	-0.006483	-0.007208	0.999953	
4235														-0.086133	-0.052944	9.762712	-0.544832	-0.838490	-0.009572	0.838520	-0.544869	0.001527	-0.006495	-0.007194	0.999953	
4236														-0.073098	-0.039476	9.779583	-0.544853	-0.838477	-0.009553	0.838507	-0.544889	0.001540	-0.006497	-0.007171	0.999953	
4237														-0.075451	-0.068124	9.777520	-0.544854	-0.838476	-0.009567	0.838506	-0.544891	0.001547	-0.006510	-0.007179	0.999953	
4238														-0.088162	-0.036729	9.763725	-0.544856	-0.838475	-0.009567	0.838504	-0.544893	0.001550	-0.006513	-0.007177	0.999953	
4239														-0.091139	-0.051744	9.777246	-0.544876	-0.838462	-0.009563	0.838491	-0.544912	0.001566	-0.006524	-0.007166	0.999953	
4240														-0.091406	-0.036759	9.778266	-0.544843	-0.838483	-0.009597	0.838512	-0.544880	0.001564	-0.006540	-0.007195	0.999953	
4241														-0.079289	-0.066196	9.777503	-0.544848	-0.838480	-0.009572	0.838509	-0.544886	0.001606	-0.006563	-0.007151	0.999953	
4242														-0.062813	-0.036255	9.766296	-0.544867	-0.838468	-0.009580	0.838497	-0.544904	0.001578	-0.006543	-0.007172	0.999953	
4243														-0.094937	-0.049984	9.777219	-0.544848	-0.838480	-0.009623	0.838509	-0.544885	0.001593	-0.006579	-0.007201	0.999952	
4244														-0.082755	-0.051507	9.793066	-0.544561	-0.838666	-0.009563	0.838694	-0.544600	0.001777	-0.006699	-0.007053	0.999953	
4245														-0.080910	-0.049111	9.763953	-0.544580	-0.838654	-0.009544	0.838682	-0.544619	0.001790	-0.006700	-0.007030	0.999953	
4246														-0.083180	-0.049527	9.778502	-0.544573	-0.838659	-0.009558	0.838687	-0.544611	0.001797	-0.006713	-0.007038	0.999953	
4247														-0.069582	-0.049719	9.779803	-0.544584	-0.838652	-0.009536	0.838679	-0.544622	0.001826	-0.006725	-0.007003	0.999953	
4248														-0.098329	-0.046594	9.762629	-0.544606	-0.838637	-0.009551	0.838665	-0.544645	0.001832	-0.006738	-0.007012	0.999953	
4249														-0.070004	-0.047627	9.765242	-0.544588	-0.838650	-0.009519	0.838677	-0.544626	0.001829	-0.006718	-0.006988	0.999953	
4250														-0.086025	-0.060955	9.762908	-0.544621	-0.838628	-0.009537	0.838655	-0.544660	0.001818	-0.006719	-0.007008	0.999953	
4251														-0.087557	-0.046935	9.778477	-0.544620	-0.838629	-0.009537	0.838656	-0.544658	0.001821	-0.006722	-0.007006	0.999953	
4252														-0.071182	-0.045269	9.750676	-0.544618	-0.838630	-0.009532	0.838658	-0.544656	0.001839	-0.006734	-0.006993	0.999953	
4253														-0.087872	-0.044849	9.763913	-0.544624	-0.838627	-0.009506	0.838654	-0.544662	0.001819	-0.006703	-0.006981	0.999953	
4254														-0.074014	-0.045085	9.765225	-0.544610	-0.838636	-0.009505	0.838663	-0.544648	0.001823	-0.006706	-0.006978	0.999953	
4255														-0.059580	-0.058961	9.750967	-0.544616	-0.838632	-0.009489	0.838659	-0.544654	0.001822	-0.006697	-0.006966	0.999953	
4256														-0.075586	-0.043841	9.765218	-0.544618	-0.838631	-0.009455	0.838658	-0.544656	0.001832	-0.006687	-0.006932	0.999954	
4257														-0.077767	-0.044138	9.779768	-0.544604	-0.838640	-0.009454	0.838667	-0.544642	0.001836	-0.006689	-0.006929	0.999954	
4258														-0.092513	-0.056529	9.762876	-0.544624	-0.838627	-0.009454	0.838653	-0.544662	0.001838	-0.006691	-0.006927	0.999954	
4259														-0.063514	-0.043032	9.766527	-0.544611	-0.838635	-0.009456	0.838662	-0.544649	0.001827	-0.006683	-0.006935	0.999954	
4260														-0.083636	-0.059210	9.807849	-0.544613	-0.838634	-0.009441	0.838661	-0.544651	0.001827	-0.006674	-0.006923	0.999954	
4261														-0.094278	-0.040419	9.763873	-0.544637	-0.838619	-0.009437	0.838645	-0.544675	0.001843	-0.006686	-0.006910	0.999954	
4262														-0.080731	-0.040640	9.765191	-0.544639	-0.838617	-0.009447	0.838644	-0.544677	0.001864	-0.006708	-0.006908	0.999954	
4263														-0.083754	-0.055792	9.778727	-0.544620	-0.838630	-0.009464	0.838656	-0.544658	0.001857	-0.006712	-0.006926	0.999953	
4264														-0.083199	-0.054513	9.764169	-0.544622	-0.838628	-0.009467	0.838655	-0.544660	0.001845	-0.006704	-0.006935	0.999953	
4265														-0.097800	-0.038632	9.763845	-0.544677	-0.838593	-0.009438	0.838619	-0.544715	0.001838	-0.006682	-0.006914	0.999954	
4266														-0.068697	-0.053114	9.750941	-0.544680	-0.838591	-0.009419	0.838617	-0.544718	0.001852	-0.006683	-0.006890	0.999954	
4267														-0.054997	-0.025066	9.768838	-0.544665	-0.838601	-0.009421	0.838627	-0.544703	0.001841	-0.006675	-0.006898	0.999954	
4268														-0.086385	-0.052312	9.764153	-0.544649	-0.838611	-0.009431	0.838638	-0.544687	0.001863	-0.006700	-0.006894	0.999954	
4269														-0.073460	-0.038966	9.781041	-0.544669	-0.838598	-0.009435	0.838624	-0.544707	0.001850	-0.006690	-0.006905	0.999954	
4270														-0.088114	-0.051448	9.764142	-0.544689	-0.838585	-0.009434	0.838612	-0.544727	0.001852	-0.006692	-0.006903	0.999954	
4271														-0.060620	-0.038745	9.782370	-0.544706	-0.838574	-0.009430	0.838600	-0.544744	0.001869	-0.006704	-0.006890	0.999954	
4272														-0.088721	-0.049477	9.749577	-0.544673	-0.838595	-0.009455	0.838621	-0.544712	0.001897	-0.006741	-0.006896	0.999954	
4273														-0.077852	-0.051761	9.780016	-0.544692	-0.838583	-0.009462	0.838610	-0.544730	0.001869	-0.006721	-0.006917	0.999953	
4274														-0.077867	-0.064946	9.764456	-0.544725	-0.838562	-0.009443	0.838588	-0.544763	0.001881	-0.006721	-0.006894	0.999954	
4275														-0.078718	-0.036201	9.781011	-0.544706	-0.838574	-0.009448	0.838600	-0.544744	0.001855	-0.006702	-0.006913	0.999954	
4276														-0.093908	-0.063499	9.763105	-0.544705	-0.838574	-0.009469	0.838601	-0.544743	0.001832	-0.006694	-0.006943	0.999953	
4277														-0.094080	-0.048570	9.764101	-0.544707	-0.838573	-0.009469	0.838600	-0.544745	0.001835	-0.006696	-0.006941	0.999953	
4278														-0.081877	-0.049749	9.779993	-0.544708	-0.838572	-0.009479	0.838599	-0.544746	0.001856	-0.006720	-0.006938	0.999953	
4279														-0.080072	-0.047481	9.750883	-0.544670	-0.838597	-0.009496	0.838624	-0.544708	0.001850	-0.006724	-0.006955	0.999953	
4280														-0.068462	-0.063410	9.765779	-0.544685	-0.838587	-0.009510	0.838613	-0.544724	0.001856	-0.006737	-0.006964	0.999953	
4281														-0.097137	-0.032322	9.765073	-0.544689	-0.838585	-0.009498	0.838611	-0.544727	0.001840	-0.006717	-0.006963	0.999953	
4282														-0.070902	-0.048820	9.781323	-0.544687	-0.838585	-0.009508	0.838612	-0.544726	0.001862	-0.006741	-0.006960	0.999953	
4283														-0.101017	-0.046872	9.778611	-0.544655	-0.838606	-0.009507	0.838633	-0.544694	0.001867	-0.006744	-0.006956	0.999953	
4284														-0.071245	-0.046676	9.766765	-0.544656	-0.838606	-0.009457	0.838632	-0.544695	0.001874	-0.006723	-0.006910	0.999954	
4285														-0.073451	-0.046860	9.781314	-0.544676	-0.838593	-0.009453	0.838620	-0.544714	0.001891	-0.006735	-0.006898	0.999954	
4286														-0.073543	-0.060038	9.765763	-0.544658	-0.838605	-0.009455	0.838631	-0.544696	0.001881	-0.006728	-0.006905	0.999954	
4287														-0.089870	-0.045257	9.779945	-0.544637	-0.838618	-0.009480	0.838644	-0.544676	0.001907	-0.006763	-0.006912	0.999953	
4288														-0.088812	-0.029241	9.766381	-0.544697	-0.838580	-0.009467	0.838606	-0.544735	0.001903	-0.006752	-0.006902	0.999953	
4289														-0.089348	-0.056989	9.749838	-0.544697	-0.838580	-0.009454	0.838606	-0.544735	0.001888	-0.006733	-0.006900	0.999954	
4290														-0.077624	-0.044263	9.781294	-0.544699	-0.838579	-0.009405	0.838605	-0.544737	0.001894	-0.006712	-0.006855	0.999954	
4291														-0.076923	-0.042689	9.766740	-0.544699	-0.838579	-0.009408	0.838605	-0.544737	0.001883	-0.006703	-0.006864	0.999954	
4292														-0.077742	-0.042358	9.766735	-0.544698	-0.838579	-0.009425	0.838605	-0.544736	0.001874	-0.006706	-0.006883	0.999954	
4293														-0.077154	-0.041095	9.752179	-0.544680	-0.838591	-0.009427	0.838617	-0.544718	0.001864	-0.006698	-0.006890	0.999954	
4294														-0.081402	-0.057116	9.780286	-0.544698	-0.838579	-0.009426	0.838605	-0.544736	0.001866	-0.006700	-0.006889	0.999954	
4295														-0.065624	-0.041750	9.768090	-0.544699	-0.838579	-0.009410	0.838605	-0.544737	0.001865	-0.006690	-0.006876	0.999954	
4296														-0.083289	-0.055978	9.780277	-0.544700	-0.838578	-0.009429	0.838604	-0.544739	0.001919	-0.006746	-0.006861	0.999954	
4297														-0.083007	-0.054500	9.765720	-0.544685	-0.838588	-0.009427	0.838614	-0.544723	0.001924	-0.006749	-0.006858	0.999954	
4298														-0.081751	-0.038591	9.752152	-0.544704	-0.838575	-0.009434	0.838601	-0.544742	0.001896	-0.006729	-0.006878	0.999954	
4299														-0.072254	-0.041728	9.797172	-0.544685	-0.838587	-0.009448	0.838613	-0.544724	0.001904	-0.006743	-0.006886	0.999954	
4300														-0.086331	-0.039668	9.781240	-0.544687	-0.838586	-0.009447	0.838612	-0.544725	0.001908	-0.006746	-0.006883	0.999954	
4301														-0.085775	-0.038153	9.766685	-0.544705	-0.838575	-0.009428	0.838601	-0.544743	0.001921	-0.006747	-0.006860	0.999954	
4302														-0.069931	-0.051006	9.737973	-0.544706	-0.838574	-0.009438	0.838599	-0.544745	0.001943	-0.006771	-0.006857	0.999954	
4303														-0.102882	-0.050983	9.764308	-0.544690	-0.838585	-0.009437	0.838610	-0.544728	0.001947	-0.006774	-0.006853	0.999954	
4304														-0.076087	-0.052845	9.781614	-0.544742	-0.838550	-0.009453	0.838576	-0.544781	0.001951	-0.006786	-0.006864	0.999953	
4305														-0.075579	-0.051602	9.767059	-0.544740	-0.838552	-0.009470	0.838578	-0.544778	0.001943	-0.006788	-0.006883	0.999953	
4306														-0.077035	-0.065716	9.766073	-0.544743	-0.838550	-0.009450	0.838575	-0.544782	0.001957	-0.006790	-0.006859	0.999953	
4307														-0.078743	-0.051538	9.781600	-0.544724	-0.838562	-0.009467	0.838588	-0.544762	0.001950	-0.006792	-0.006877	0.999953	
4308														-0.063569	-0.050959	9.768433	-0.544722	-0.838563	-0.009469	0.838590	-0.544760	0.001939	-0.006784	-0.006885	0.999953	
4309														-0.094894	-0.050039	9.780203	-0.544723	-0.838563	-0.009454	0.838589	-0.544762	0.001938	-0.006775	-0.006872	0.999953	
4310														-0.078232	-0.048493	9.752488	-0.544724	-0.838562	-0.009475	0.838588	-0.544763	0.001915	-0.006768	-0.006902	0.999953	
4311														-0.094950	-0.048510	9.765642	-0.544689	-0.838585	-0.009480	0.838611	-0.544727	0.001891	-0.006750	-0.006920	0.999953	
4312														-0.081096	-0.048743	9.767029	-0.544710	-0.838571	-0.009465	0.838597	-0.544749	0.001889	-0.006740	-0.006908	0.999953	
4313														-0.054420	-0.050557	9.784359	-0.544707	-0.838572	-0.009506	0.838599	-0.544746	0.001918	-0.006786	-0.006927	0.999953	
4314														-0.086642	-0.064251	9.795137	-0.544709	-0.838571	-0.009486	0.838597	-0.544748	0.001932	-0.006788	-0.006903	0.999953	
4315														-0.084635	-0.061822	9.766035	-0.544708	-0.838572	-0.009485	0.838598	-0.544747	0.001935	-0.006790	-0.006900	0.999953	
4316														-0.084115	-0.060473	9.751481	-0.544726	-0.838560	-0.009500	0.838587	-0.544765	0.001940	-0.006802	-0.006909	0.999953	
4317														-0.072772	-0.047820	9.782948	-0.544723	-0.838562	-0.009480	0.838588	-0.544762	0.001955	-0.006803	-0.006885	0.999953	
4318														-0.072199	-0.046199	9.768397	-0.544708	-0.838573	-0.009460	0.838598	-0.544747	0.001971	-0.006806	-0.006860	0.999953	
4319														-0.057625	-0.060051	9.754273	-0.544708	-0.838572	-0.009477	0.838598	-0.544747	0.001962	-0.006808	-0.006879	0.999953	
4320														-0.089016	-0.059324	9.766012	-0.544709	-0.838571	-0.009481	0.838597	-0.544748	0.001951	-0.006800	-0.006888	0.999953	
4321														-0.075267	-0.059646	9.767411	-0.544705	-0.838574	-0.009497	0.838600	-0.544744	0.001943	-0.006803	-0.006906	0.999953	
4322														-0.091803	-0.044910	9.781519	-0.544686	-0.838586	-0.009519	0.838612	-0.544726	0.001983	-0.006848	-0.006902	0.999953	
4323														-0.078212	-0.045066	9.782920	-0.544705	-0.838574	-0.009507	0.838600	-0.544745	0.001967	-0.006828	-0.006901	0.999953	
4324														-0.078079	-0.058276	9.767397	-0.544704	-0.838574	-0.009506	0.838601	-0.544743	0.001970	-0.006830	-0.006899	0.999953	
4325														-0.092513	-0.027928	9.767921	-0.544704	-0.838574	-0.009516	0.838600	-0.544743	0.001991	-0.006853	-0.006896	0.999953	
4326														-0.064959	-0.043274	9.769768	-0.544705	-0.838574	-0.009512	0.838600	-0.544745	0.002009	-0.006866	-0.006883	0.999953	
4327														-0.094569	-0.026730	9.767905	-0.544689	-0.838584	-0.009503	0.838610	-0.544729	0.002042	-0.006889	-0.006857	0.999953	
4328														-0.082823	-0.042445	9.782893	-0.544686	-0.838586	-0.009513	0.838612	-0.544726	0.002001	-0.006860	-0.006888	0.999953	
4329														-0.098645	-0.056090	9.780506	-0.544700	-0.838577	-0.009512	0.838603	-0.544740	0.002003	-0.006861	-0.006885	0.999953	
4330														-0.066924	-0.040348	9.755205	-0.544701	-0.838577	-0.009492	0.838602	-0.544740	0.002017	-0.006862	-0.006861	0.999953	
4331														-0.099996	-0.040346	9.781459	-0.544681	-0.838589	-0.009516	0.838615	-0.544721	0.002044	-0.006897	-0.006868	0.999953	
4332														-0.085494	-0.054283	9.767358	-0.544662	-0.838602	-0.009518	0.838627	-0.544702	0.002033	-0.006890	-0.006875	0.999953	
4333														-0.070182	-0.053568	9.754228	-0.544662	-0.838601	-0.009506	0.838627	-0.544702	0.002019	-0.006871	-0.006872	0.999953	
4334														-0.086326	-0.038758	9.768314	-0.544684	-0.838588	-0.009495	0.838613	-0.544723	0.002003	-0.006852	-0.006872	0.999953	
4335														-0.058547	-0.054175	9.770193	-0.544650	-0.838610	-0.009508	0.838636	-0.544689	0.002013	-0.006867	-0.006877	0.999953	
4336														-0.086452	-0.037137	9.753756	-0.544680	-0.838590	-0.009517	0.838616	-0.544719	0.001969	-0.006836	-0.006909	0.999953	
4337														-0.087692	-0.051312	9.752789	-0.544646	-0.838612	-0.009497	0.838638	-0.544686	0.001986	-0.006839	-0.006883	0.999953	
4338														-0.090027	-0.051719	9.767331	-0.544645	-0.838612	-0.009515	0.838639	-0.544685	0.001978	-0.006841	-0.006902	0.999953	
4339														-0.090897	-0.051336	9.767325	-0.544647	-0.838611	-0.009514	0.838638	-0.544686	0.001981	-0.006843	-0.006900	0.999953	
4340														-0.077253	-0.051514	9.768749	-0.544649	-0.838610	-0.009528	0.838636	-0.544688	0.001987	-0.006857	-0.006908	0.999953	
4341														-0.076707	-0.050173	9.754197	-0.544650	-0.838609	-0.009527	0.838636	-0.544689	0.001991	-0.006859	-0.006906	0.999953	
4342														-0.093120	-0.078240	9.750844	-0.544666	-0.838599	-0.009512	0.838625	-0.544706	0.001989	-0.006849	-0.006893	0.999953	
4343														-0.082790	-0.051856	9.797829	-0.544667	-0.838598	-0.009526	0.838624	-0.544706	0.001997	-0.006863	-0.006901	0.999953	
4344														-0.080725	-0.049769	9.768730	-0.544648	-0.838610	-0.009546	0.838636	-0.544688	0.001975	-0.006856	-0.006930	0.999952	
4345														-0.080683	-0.063046	9.753221	-0.544708	-0.838572	-0.009540	0.838598	-0.544747	0.002005	-0.006878	-0.006909	0.999952	
4346														-0.069413	-0.050363	9.784704	-0.544691	-0.838582	-0.009546	0.838609	-0.544731	0.001979	-0.006860	-0.006927	0.999952	
4347														-0.099306	-0.048668	9.781823	-0.544711	-0.838570	-0.009527	0.838596	-0.544751	0.001993	-0.006861	-0.006904	0.999953	
4348														-0.084586	-0.062442	9.767757	-0.544714	-0.838568	-0.009530	0.838594	-0.544753	0.001981	-0.006853	-0.006913	0.999953	
4349														-0.070941	-0.062604	9.769193	-0.544714	-0.838568	-0.009541	0.838594	-0.544753	0.002003	-0.006877	-0.006910	0.999952	
4350														-0.069985	-0.046655	9.755596	-0.544712	-0.838568	-0.009555	0.838595	-0.544752	0.002009	-0.006890	-0.006919	0.999952	
4351														-0.088988	-0.062073	9.782285	-0.544692	-0.838581	-0.009568	0.838608	-0.544732	0.002017	-0.006903	-0.006926	0.999952	
4352														-0.089252	-0.047082	9.783232	-0.544711	-0.838569	-0.009560	0.838596	-0.544751	0.001985	-0.006873	-0.006936	0.999952	
4353														-0.088482	-0.045861	9.768682	-0.544708	-0.838571	-0.009577	0.838598	-0.544747	0.001977	-0.006875	-0.006954	0.999952	
4354														-0.076558	-0.061572	9.783720	-0.544692	-0.838582	-0.009553	0.838609	-0.544731	0.001945	-0.006835	-0.006952	0.999952	
4355														-0.075183	-0.045418	9.770124	-0.544694	-0.838581	-0.009519	0.838607	-0.544733	0.001956	-0.006825	-0.006918	0.999953	
4356														-0.089515	-0.057848	9.753176	-0.544694	-0.838581	-0.009503	0.838607	-0.544733	0.001955	-0.006817	-0.006905	0.999953	
4357														-0.062241	-0.044712	9.771569	-0.544709	-0.838571	-0.009499	0.838597	-0.544749	0.001972	-0.006829	-0.006892	0.999953	
4358														-0.077213	-0.071809	9.753673	-0.544711	-0.838571	-0.009480	0.838596	-0.544750	0.001987	-0.006831	-0.006868	0.999953	
4359														-0.078591	-0.042883	9.770109	-0.544692	-0.838583	-0.009479	0.838608	-0.544731	0.001991	-0.006833	-0.006865	0.999953	
4360														-0.078397	-0.056068	9.754613	-0.544747	-0.838547	-0.009465	0.838573	-0.544786	0.001987	-0.006823	-0.006855	0.999953	
4361														-0.079102	-0.055424	9.754611	-0.544697	-0.838580	-0.009433	0.838606	-0.544736	0.001987	-0.006805	-0.006828	0.999954	
4362														-0.082366	-0.041994	9.784643	-0.544715	-0.838568	-0.009433	0.838594	-0.544754	0.001989	-0.006806	-0.006827	0.999954	
4363														-0.081372	-0.069208	9.753658	-0.544712	-0.838570	-0.009495	0.838595	-0.544751	0.001991	-0.006842	-0.006878	0.999953	
4364														-0.081973	-0.054315	9.754594	-0.544592	-0.838647	-0.009534	0.838672	-0.544632	0.002138	-0.006985	-0.006832	0.999952	
4365														-0.068327	-0.054341	9.756052	-0.544594	-0.838646	-0.009533	0.838671	-0.544634	0.002141	-0.006988	-0.006829	0.999952	
4366														-0.086696	-0.055010	9.783675	-0.544591	-0.838647	-0.009517	0.838672	-0.544632	0.002141	-0.006979	-0.006816	0.999952	
4367														-0.073161	-0.055025	9.785134	-0.544571	-0.838660	-0.009539	0.838685	-0.544612	0.002182	-0.007025	-0.006812	0.999952	
4368														-0.084156	-0.051460	9.740029	-0.544571	-0.838660	-0.009548	0.838685	-0.544612	0.002141	-0.006995	-0.006842	0.999952	
4369														-0.074800	-0.054360	9.785125	-0.544597	-0.838643	-0.009548	0.838669	-0.544638	0.002143	-0.006997	-0.006841	0.999952	
4370														-0.074163	-0.052881	9.770577	-0.544595	-0.838645	-0.009529	0.838670	-0.544636	0.002158	-0.006999	-0.006816	0.999952	
4371														-0.073580	-0.051450	9.756029	-0.544597	-0.838643	-0.009542	0.838668	-0.544638	0.002164	-0.007012	-0.006824	0.999952	
4372														-0.089010	-0.050514	9.754553	-0.544618	-0.838630	-0.009546	0.838655	-0.544659	0.002152	-0.007004	-0.006834	0.999952	
4373														-0.065214	-0.053949	9.801125	-0.544599	-0.838642	-0.009563	0.838667	-0.544640	0.002145	-0.007007	-0.006852	0.999952	
4374														-0.091800	-0.036123	9.770021	-0.544599	-0.838642	-0.009576	0.838667	-0.544640	0.002152	-0.007020	-0.006860	0.999952	
4375														-0.092417	-0.046549	9.765678	-0.544605	-0.838638	-0.009578	0.838664	-0.544646	0.002146	-0.007016	-0.006864	0.999952	
4376														-0.093034	-0.056975	9.761335	-0.544610	-0.838634	-0.009580	0.838660	-0.544651	0.002139	-0.007012	-0.006869	0.999952	
4377														-0.078840	-0.049207	9.756000	-0.544621	-0.838627	-0.009607	0.838653	-0.544662	0.002152	-0.007038	-0.006885	0.999952	
4378														-0.067316	-0.064863	9.771082	-0.544625	-0.838625	-0.009618	0.838650	-0.544666	0.002174	-0.007062	-0.006882	0.999951	
4379														-0.067735	-0.049865	9.772012	-0.544625	-0.838624	-0.009624	0.838650	-0.544667	0.002147	-0.007043	-0.006902	0.999951	
4380														-0.084010	-0.078110	9.768659	-0.544627	-0.838623	-0.009620	0.838648	-0.544669	0.002166	-0.007056	-0.006888	0.999951	
4381														-0.068112	-0.047949	9.757461	-0.544649	-0.838609	-0.009628	0.838634	-0.544691	0.002201	-0.007090	-0.006875	0.999951	
4382														-0.086732	-0.048738	9.785056	-0.544648	-0.838609	-0.009645	0.838635	-0.544690	0.002193	-0.007092	-0.006894	0.999951	
4383														-0.086263	-0.062146	9.769578	-0.544669	-0.838596	-0.009625	0.838621	-0.544710	0.002143	-0.007040	-0.006905	0.999951	
4384														-0.070839	-0.061419	9.756520	-0.544649	-0.838609	-0.009638	0.838635	-0.544690	0.002151	-0.007054	-0.006911	0.999951	
4385														-0.087407	-0.046817	9.770499	-0.544653	-0.838606	-0.009656	0.838632	-0.544695	0.002143	-0.007057	-0.006931	0.999951	
4386														-0.074046	-0.061577	9.771054	-0.544655	-0.838604	-0.009644	0.838630	-0.544697	0.002128	-0.007038	-0.006929	0.999951	
4387														-0.074755	-0.061252	9.771051	-0.544673	-0.838593	-0.009665	0.838619	-0.544714	0.002104	-0.007029	-0.006960	0.999951	
4388														-0.086550	-0.043919	9.741399	-0.544657	-0.838604	-0.009634	0.838630	-0.544698	0.002101	-0.007010	-0.006935	0.999951	
4389														-0.090839	-0.059644	9.769552	-0.544676	-0.838592	-0.009630	0.838617	-0.544717	0.002119	-0.007022	-0.006922	0.999951	
4390														-0.060834	-0.044606	9.758921	-0.544670	-0.838595	-0.009637	0.838620	-0.544712	0.002155	-0.007057	-0.006908	0.999951	
4391														-0.076851	-0.058146	9.756494	-0.544653	-0.838606	-0.009636	0.838632	-0.544694	0.002159	-0.007059	-0.006905	0.999951	
4392														-0.090806	-0.056313	9.740449	-0.544671	-0.838594	-0.009650	0.838620	-0.544713	0.002165	-0.007072	-0.006914	0.999951	
4393														-0.081331	-0.044400	9.786494	-0.544617	-0.838630	-0.009648	0.838655	-0.544658	0.002172	-0.007076	-0.006908	0.999951	
4394														-0.081201	-0.057531	9.771022	-0.544633	-0.838619	-0.009640	0.838644	-0.544675	0.002203	-0.007098	-0.006885	0.999951	
4395														-0.080589	-0.056222	9.756475	-0.544633	-0.838619	-0.009661	0.838645	-0.544674	0.002180	-0.007091	-0.006915	0.999951	
4396														-0.066946	-0.056405	9.757974	-0.544652	-0.838606	-0.009672	0.838632	-0.544694	0.002201	-0.007114	-0.006913	0.999951	
4397														-0.100524	-0.071151	9.783120	-0.544636	-0.838617	-0.009653	0.838642	-0.544678	0.002217	-0.007116	-0.006888	0.999951	
4398														-0.068425	-0.040535	9.758889	-0.544614	-0.838631	-0.009648	0.838656	-0.544657	0.002236	-0.007130	-0.006873	0.999951	
4399														-0.071240	-0.055425	9.772506	-0.544638	-0.838616	-0.009633	0.838641	-0.544680	0.002235	-0.007121	-0.006862	0.999951	
4400														-0.086777	-0.054534	9.770991	-0.544619	-0.838628	-0.009676	0.838653	-0.544661	0.002249	-0.007156	-0.006890	0.999951	
4401														-0.073137	-0.054598	9.772497	-0.544639	-0.838615	-0.009646	0.838640	-0.544682	0.002245	-0.007136	-0.006867	0.999951	
4402														-0.073394	-0.039487	9.773413	-0.544590	-0.838647	-0.009650	0.838672	-0.544632	0.002221	-0.007119	-0.006884	0.999951	
4403														-0.074165	-0.039203	9.773409	-0.544626	-0.838623	-0.009669	0.838649	-0.544669	0.002211	-0.007120	-0.006905	0.999951	
4404														-0.106101	-0.053317	9.783997	-0.544603	-0.838639	-0.009667	0.838664	-0.544645	0.002215	-0.007123	-0.006901	0.999951	
4405														-0.077104	-0.082169	9.770649	-0.544600	-0.838640	-0.009666	0.838666	-0.544642	0.002219	-0.007126	-0.006898	0.999951	
4406														-0.077123	-0.052504	9.772478	-0.544600	-0.838640	-0.009669	0.838666	-0.544642	0.002207	-0.007117	-0.006907	0.999951	
4407														-0.092102	-0.036753	9.771871	-0.544606	-0.838637	-0.009632	0.838662	-0.544648	0.002233	-0.007119	-0.006862	0.999951	
4408														-0.075655	-0.049473	9.743391	-0.544599	-0.838641	-0.009634	0.838667	-0.544641	0.002221	-0.007110	-0.006870	0.999951	
4409														-0.066766	-0.052226	9.788527	-0.544596	-0.838643	-0.009674	0.838668	-0.544638	0.002250	-0.007156	-0.006888	0.999951	
4410														-0.077871	-0.048850	9.743376	-0.544574	-0.838657	-0.009702	0.838682	-0.544617	0.002261	-0.007180	-0.006906	0.999950	
4411														-0.083393	-0.051066	9.786992	-0.544592	-0.838645	-0.009691	0.838670	-0.544635	0.002244	-0.007160	-0.006905	0.999951	
4412														-0.084925	-0.079812	9.785164	-0.544593	-0.838645	-0.009690	0.838670	-0.544635	0.002248	-0.007162	-0.006902	0.999951	
4413														-0.080696	-0.062163	9.742452	-0.544591	-0.838646	-0.009692	0.838671	-0.544633	0.002236	-0.007154	-0.006911	0.999951	
4414														-0.082349	-0.033314	9.758809	-0.544604	-0.838637	-0.009689	0.838663	-0.544646	0.002253	-0.007167	-0.006898	0.999951	
4415														-0.072633	-0.064261	9.787592	-0.544600	-0.838640	-0.009703	0.838665	-0.544643	0.002260	-0.007180	-0.006907	0.999950	
4416														-0.068243	-0.046670	9.744879	-0.544601	-0.838639	-0.009682	0.838665	-0.544643	0.002212	-0.007129	-0.006916	0.999951	
4417														-0.088455	-0.062868	9.786057	-0.544603	-0.838638	-0.009663	0.838664	-0.544645	0.002227	-0.007130	-0.006891	0.999951	
4418														-0.085724	-0.046042	9.757881	-0.544618	-0.838629	-0.009669	0.838654	-0.544660	0.002199	-0.007111	-0.006911	0.999951	
4419														-0.075527	-0.062572	9.787581	-0.544598	-0.838641	-0.009698	0.838667	-0.544640	0.002211	-0.007136	-0.006929	0.999951	
4420														-0.071504	-0.044922	9.744864	-0.544598	-0.838641	-0.009693	0.838667	-0.544640	0.002229	-0.007148	-0.006916	0.999951	
4421														-0.077108	-0.046970	9.788478	-0.544616	-0.838630	-0.009693	0.838655	-0.544658	0.002230	-0.007150	-0.006914	0.999951	
4422														-0.074798	-0.044704	9.759396	-0.544597	-0.838642	-0.009677	0.838667	-0.544640	0.002231	-0.007141	-0.006900	0.999951	
4423														-0.077385	-0.059693	9.773027	-0.544610	-0.838634	-0.009668	0.838660	-0.544651	0.002200	-0.007111	-0.006910	0.999951	
4424														-0.093068	-0.073368	9.770580	-0.544611	-0.838633	-0.009664	0.838658	-0.544653	0.002218	-0.007124	-0.006897	0.999951	
4425														-0.077500	-0.057801	9.758481	-0.544597	-0.838642	-0.009663	0.838667	-0.544639	0.002222	-0.007126	-0.006894	0.999951	
4426														-0.092464	-0.042349	9.757836	-0.544611	-0.838633	-0.009669	0.838659	-0.544653	0.002194	-0.007107	-0.006914	0.999951	
4427														-0.066388	-0.072971	9.773655	-0.544627	-0.838623	-0.009669	0.838648	-0.544669	0.002197	-0.007109	-0.006912	0.999951	
4428														-0.079832	-0.056508	9.758470	-0.544628	-0.838622	-0.009653	0.838648	-0.544670	0.002197	-0.007100	-0.006899	0.999951	
4429														-0.080591	-0.056025	9.758467	-0.544642	-0.838613	-0.009656	0.838638	-0.544684	0.002184	-0.007091	-0.006908	0.999951	
4430														-0.068363	-0.056845	9.774550	-0.544640	-0.838615	-0.009640	0.838640	-0.544682	0.002184	-0.007083	-0.006895	0.999951	
4431														-0.081704	-0.040500	9.759359	-0.544678	-0.838590	-0.009648	0.838616	-0.544720	0.002156	-0.007063	-0.006917	0.999951	
4432														-0.081157	-0.039314	9.744813	-0.544657	-0.838603	-0.009685	0.838629	-0.544699	0.002200	-0.007120	-0.006923	0.999951	
4433														-0.058040	-0.056823	9.790629	-0.544618	-0.838629	-0.009641	0.838654	-0.544660	0.002180	-0.007079	-0.006898	0.999951	
4434														-0.083436	-0.067497	9.743010	-0.544615	-0.838630	-0.009658	0.838656	-0.544657	0.002171	-0.007081	-0.006917	0.999951	
4435														-0.071080	-0.053686	9.759994	-0.544635	-0.838618	-0.009651	0.838643	-0.544677	0.002203	-0.007105	-0.006894	0.999951	
4436														-0.087897	-0.038952	9.773867	-0.544648	-0.838609	-0.009666	0.838635	-0.544690	0.002208	-0.007117	-0.006903	0.999951	
4437														-0.102134	-0.051855	9.756869	-0.544665	-0.838598	-0.009666	0.838624	-0.544707	0.002210	-0.007119	-0.006902	0.999951	
4438														-0.075749	-0.067649	9.773625	-0.544642	-0.838613	-0.009649	0.838638	-0.544684	0.002211	-0.007110	-0.006887	0.999951	
4439														-0.074591	-0.051585	9.759979	-0.544659	-0.838602	-0.009633	0.838628	-0.544701	0.002210	-0.007100	-0.006875	0.999951	
4440														-0.091375	-0.037005	9.773842	-0.544635	-0.838617	-0.009676	0.838643	-0.544678	0.002224	-0.007136	-0.006903	0.999951	
4441														-0.089461	-0.049374	9.743869	-0.544642	-0.838614	-0.009628	0.838639	-0.544684	0.002233	-0.007116	-0.006858	0.999951	
4442														-0.077570	-0.064583	9.759076	-0.544700	-0.838576	-0.009629	0.838601	-0.544742	0.002232	-0.007117	-0.006859	0.999951	
4443														-0.076520	-0.048951	9.745423	-0.544677	-0.838590	-0.009682	0.838615	-0.544720	0.002202	-0.007121	-0.006921	0.999951	
4444														-0.066121	-0.050996	9.776057	-0.544676	-0.838590	-0.009711	0.838616	-0.544718	0.002212	-0.007145	-0.006939	0.999950	
4445														-0.081654	-0.050194	9.774484	-0.544690	-0.838581	-0.009711	0.838607	-0.544732	0.002214	-0.007146	-0.006938	0.999950	
4446														-0.081039	-0.063375	9.759056	-0.544693	-0.838580	-0.009669	0.838605	-0.544735	0.002192	-0.007105	-0.006915	0.999951	
4447														-0.082591	-0.034449	9.775368	-0.544691	-0.838581	-0.009672	0.838607	-0.544733	0.002180	-0.007097	-0.006923	0.999951	
4448														-0.080810	-0.061605	9.744513	-0.544688	-0.838583	-0.009674	0.838609	-0.544730	0.002169	-0.007089	-0.006931	0.999951	
4449														-0.084809	-0.062980	9.773582	-0.544724	-0.838560	-0.009693	0.838586	-0.544766	0.002158	-0.007090	-0.006952	0.999951	
4450														-0.085672	-0.062500	9.773577	-0.544727	-0.838557	-0.009674	0.838583	-0.544769	0.002173	-0.007092	-0.006929	0.999951	
4451														-0.083088	-0.045745	9.745385	-0.544705	-0.838572	-0.009706	0.838598	-0.544747	0.002169	-0.007106	-0.006958	0.999951	
4452														-0.072962	-0.062021	9.775144	-0.544704	-0.838573	-0.009687	0.838599	-0.544746	0.002184	-0.007108	-0.006934	0.999951	
4453														-0.072123	-0.060580	9.760605	-0.544703	-0.838573	-0.009674	0.838599	-0.544745	0.002169	-0.007089	-0.006932	0.999951	
4454														-0.074230	-0.046264	9.776022	-0.544700	-0.838575	-0.009670	0.838601	-0.544742	0.002187	-0.007101	-0.006918	0.999951	
4455														-0.088058	-0.044524	9.759901	-0.544680	-0.838588	-0.009672	0.838614	-0.544722	0.002176	-0.007093	-0.006926	0.999951	
4456														-0.076275	-0.059680	9.775133	-0.544687	-0.838584	-0.009631	0.838609	-0.544729	0.002216	-0.007105	-0.006870	0.999951	
4457														-0.106417	-0.058233	9.771962	-0.544663	-0.838599	-0.009659	0.838625	-0.544705	0.002228	-0.007130	-0.006887	0.999951	
4458														-0.079888	-0.059580	9.789658	-0.544661	-0.838601	-0.009677	0.838626	-0.544703	0.002219	-0.007132	-0.006907	0.999951	
4459														-0.075587	-0.041892	9.746928	-0.544661	-0.838601	-0.009643	0.838626	-0.544703	0.002231	-0.007123	-0.006872	0.999951	
4460														-0.089642	-0.054639	9.729922	-0.544682	-0.838587	-0.009643	0.838613	-0.544724	0.002233	-0.007125	-0.006871	0.999951	
4461														-0.082091	-0.043394	9.790525	-0.544678	-0.838590	-0.009660	0.838615	-0.544720	0.002224	-0.007127	-0.006889	0.999951	
4462														-0.077975	-0.040437	9.746915	-0.544676	-0.838591	-0.009632	0.838616	-0.544718	0.002206	-0.007096	-0.006877	0.999951	
4463														-0.067406	-0.042007	9.777573	-0.544659	-0.838602	-0.009646	0.838627	-0.544701	0.002213	-0.007110	-0.006884	0.999951	
4464														-0.083017	-0.055859	9.775100	-0.544674	-0.838592	-0.009637	0.838618	-0.544716	0.002182	-0.007079	-0.006894	0.999951	
4465														-0.069064	-0.055700	9.776691	-0.544660	-0.838602	-0.009607	0.838627	-0.544701	0.002179	-0.007060	-0.006870	0.999951	
4466														-0.097047	-0.038881	9.759840	-0.544638	-0.838617	-0.009605	0.838642	-0.544679	0.002183	-0.007062	-0.006866	0.999951	
4467														-0.069193	-0.053759	9.762150	-0.544636	-0.838618	-0.009616	0.838643	-0.544677	0.002205	-0.007087	-0.006864	0.999951	
4468														-0.086673	-0.068401	9.774210	-0.544636	-0.838617	-0.009631	0.838642	-0.544678	0.002211	-0.007100	-0.006872	0.999951	
4469														-0.085526	-0.037886	9.761414	-0.544635	-0.838617	-0.009641	0.838643	-0.544677	0.002233	-0.007124	-0.006870	0.999951	
4470														-0.088396	-0.052746	9.775071	-0.544643	-0.838613	-0.009623	0.838638	-0.544685	0.002248	-0.007126	-0.006846	0.999951	
4471														-0.060255	-0.052892	9.778269	-0.544660	-0.838602	-0.009635	0.838627	-0.544702	0.002268	-0.007150	-0.006845	0.999951	
4472														-0.088828	-0.065304	9.759657	-0.544682	-0.838588	-0.009590	0.838612	-0.544724	0.002259	-0.007119	-0.006812	0.999951	
4473														-0.090886	-0.050873	9.775058	-0.544663	-0.838600	-0.009589	0.838625	-0.544705	0.002263	-0.007121	-0.006809	0.999951	
4474														-0.086884	-0.047885	9.731449	-0.544681	-0.838589	-0.009589	0.838613	-0.544723	0.002265	-0.007123	-0.006807	0.999951	
4475														-0.076492	-0.049381	9.762119	-0.544697	-0.838578	-0.009585	0.838602	-0.544739	0.002282	-0.007135	-0.006795	0.999951	
4476														-0.077463	-0.063575	9.761249	-0.544714	-0.838567	-0.009580	0.838592	-0.544756	0.002236	-0.007094	-0.006816	0.999952	
4477														-0.079584	-0.049413	9.776645	-0.544728	-0.838558	-0.009592	0.838583	-0.544770	0.002256	-0.007117	-0.006814	0.999951	
4478														-0.080452	-0.048927	9.776641	-0.544723	-0.838561	-0.009579	0.838586	-0.544765	0.002241	-0.007098	-0.006811	0.999952	
4479														-0.068655	-0.064247	9.791917	-0.544738	-0.838552	-0.009590	0.838576	-0.544779	0.002262	-0.007121	-0.006810	0.999951	
4480														-0.095162	-0.046615	9.760485	-0.544740	-0.838550	-0.009556	0.838575	-0.544782	0.002273	-0.007112	-0.006775	0.999952	
4481														-0.094603	-0.059867	9.745083	-0.544738	-0.838552	-0.009573	0.838576	-0.544780	0.002265	-0.007114	-0.006794	0.999952	
4482														-0.066104	-0.045457	9.749171	-0.544738	-0.838552	-0.009554	0.838576	-0.544779	0.002279	-0.007116	-0.006771	0.999952	
4483														-0.099459	-0.045922	9.774999	-0.544716	-0.838566	-0.009583	0.838590	-0.544758	0.002290	-0.007140	-0.006789	0.999951	
4484														-0.084194	-0.044999	9.762077	-0.544661	-0.838602	-0.009515	0.838625	-0.544703	0.002410	-0.007204	-0.006667	0.999952	
4485														-0.070456	-0.044800	9.763692	-0.544671	-0.838596	-0.009515	0.838619	-0.544713	0.002413	-0.007206	-0.006665	0.999952	
4486														-0.084435	-0.057711	9.746675	-0.544669	-0.838597	-0.009499	0.838620	-0.544711	0.002412	-0.007197	-0.006652	0.999952	
4487														-0.086447	-0.028706	9.762921	-0.544684	-0.838588	-0.009496	0.838611	-0.544726	0.002429	-0.007210	-0.006640	0.999952	
4488														-0.088153	-0.072079	9.760341	-0.544658	-0.838604	-0.009509	0.838627	-0.544700	0.002437	-0.007223	-0.006647	0.999952	
