// Start Time: Unknown: 
// Update Rate: 60.0Hz 
// Filter Profile: human (46.1) 
// Firmware Version: 4.6.0
PacketCounter	SampleTimeFine	Year	Month	Day	Second	UTC_Nano	UTC_Year	UTC_Month	UTC_Day	UTC_Hour	UTC_Minute	UTC_Second	UTC_Valid	Acc_X	Acc_Y	Acc_Z	Mat[1][1]	Mat[2][1]	Mat[3][1]	Mat[1][2]	Mat[2][2]	Mat[3][2]	Mat[1][3]	Mat[2][3]	Mat[3][3] 
3598														-0.055993	0.050925	9.806747	-0.930660	0.365631	-0.013632	-0.365670	-0.930745	0.000350	-0.012560	0.005311	0.999907	
3599														-0.069728	0.035559	9.792526	-0.930664	0.365622	-0.013622	-0.365661	-0.930748	0.000370	-0.012544	0.005326	0.999907	
3600														-0.070508	0.050223	9.777260	-0.930672	0.365599	-0.013647	-0.365637	-0.930757	0.000359	-0.012571	0.005324	0.999907	
3601														-0.069453	0.022279	9.793148	-0.930676	0.365590	-0.013651	-0.365629	-0.930761	0.000374	-0.012569	0.005339	0.999907	
3602														-0.070803	0.038101	9.807147	-0.930669	0.365606	-0.013670	-0.365644	-0.930755	0.000347	-0.012597	0.005322	0.999906	
3603														-0.086704	0.053038	9.820932	-0.930667	0.365613	-0.013654	-0.365652	-0.930752	0.000354	-0.012579	0.005322	0.999907	
3604														-0.070616	0.038050	9.777873	-0.930671	0.365603	-0.013658	-0.365642	-0.930755	0.000368	-0.012578	0.005337	0.999907	
3605														-0.057620	0.056163	9.821347	-0.930674	0.365594	-0.013654	-0.365633	-0.930759	0.000402	-0.012562	0.005367	0.999907	
3606														-0.071664	0.054299	9.777229	-0.930666	0.365613	-0.013672	-0.365653	-0.930751	0.000410	-0.012575	0.005381	0.999906	
3607														-0.071652	0.041449	9.807127	-0.930670	0.365604	-0.013672	-0.365643	-0.930755	0.000376	-0.012588	0.005349	0.999906	
3608														-0.042309	0.043133	9.792916	-0.930672	0.365599	-0.013675	-0.365639	-0.930757	0.000425	-0.012572	0.005396	0.999906	
3609														-0.053735	0.046922	9.796251	-0.930673	0.365595	-0.013700	-0.365634	-0.930758	0.000422	-0.012597	0.005402	0.999906	
3610														-0.065160	0.050711	9.799585	-0.930675	0.365590	-0.013725	-0.365630	-0.930760	0.000419	-0.012621	0.005408	0.999906	
3611														-0.057849	0.044537	9.792688	-0.930678	0.365580	-0.013739	-0.365620	-0.930764	0.000428	-0.012631	0.005422	0.999906	
3612														-0.073100	0.045005	9.807101	-0.930682	0.365571	-0.013764	-0.365611	-0.930768	0.000416	-0.012659	0.005420	0.999905	
3613														-0.059743	0.061030	9.806667	-0.930687	0.365558	-0.013790	-0.365597	-0.930773	0.000404	-0.012688	0.005417	0.999905	
3614														-0.063027	0.053451	9.795956	-0.930688	0.365554	-0.013794	-0.365594	-0.930775	0.000393	-0.012695	0.005409	0.999905	
3615														-0.066312	0.045871	9.785246	-0.930689	0.365550	-0.013798	-0.365590	-0.930776	0.000383	-0.012703	0.005401	0.999905	
3616														-0.063468	0.054132	9.788630	-0.930690	0.365547	-0.013828	-0.365587	-0.930777	0.000377	-0.012733	0.005407	0.999904	
3617														-0.060624	0.062393	9.792015	-0.930691	0.365545	-0.013857	-0.365585	-0.930778	0.000372	-0.012762	0.005413	0.999904	
3618														-0.064096	0.052209	9.799756	-0.930689	0.365550	-0.013858	-0.365590	-0.930776	0.000379	-0.012760	0.005419	0.999904	
3619														-0.067568	0.042026	9.807498	-0.930687	0.365554	-0.013859	-0.365594	-0.930774	0.000386	-0.012758	0.005426	0.999904	
3620														-0.076093	0.063782	9.791777	-0.930680	0.365573	-0.013848	-0.365613	-0.930767	0.000373	-0.012753	0.005410	0.999904	
3621														-0.072179	0.057168	9.792153	-0.930680	0.365573	-0.013862	-0.365613	-0.930767	0.000384	-0.012762	0.005426	0.999904	
3622														-0.068265	0.050553	9.792528	-0.930680	0.365572	-0.013876	-0.365612	-0.930767	0.000395	-0.012771	0.005441	0.999904	
3623														-0.061020	0.038602	9.822547	-0.930673	0.365590	-0.013879	-0.365630	-0.930760	0.000375	-0.012781	0.005424	0.999904	
3624														-0.061187	0.042221	9.811407	-0.930673	0.365589	-0.013883	-0.365629	-0.930760	0.000382	-0.012782	0.005432	0.999904	
3625														-0.061355	0.045840	9.800266	-0.930673	0.365589	-0.013887	-0.365629	-0.930761	0.000389	-0.012783	0.005439	0.999903	
3626														-0.061764	0.053073	9.777984	-0.930677	0.365579	-0.013902	-0.365619	-0.930765	0.000364	-0.012806	0.005422	0.999903	
3627														-0.061819	0.040261	9.807899	-0.930679	0.365573	-0.013915	-0.365613	-0.930767	0.000358	-0.012821	0.005421	0.999903	
3628														-0.076226	0.038723	9.778410	-0.930682	0.365564	-0.013927	-0.365604	-0.930770	0.000353	-0.012834	0.005420	0.999903	
3629														-0.077619	0.054565	9.792380	-0.930687	0.365551	-0.013937	-0.365591	-0.930776	0.000346	-0.012845	0.005417	0.999903	
3630														-0.062894	0.055436	9.777964	-0.930679	0.365573	-0.013928	-0.365613	-0.930767	0.000366	-0.012830	0.005433	0.999903	
3631														-0.062472	0.042141	9.793251	-0.930682	0.365564	-0.013939	-0.365604	-0.930770	0.000361	-0.012842	0.005432	0.999903	
3632														-0.064592	0.071723	9.791925	-0.930685	0.365554	-0.013962	-0.365594	-0.930774	0.000301	-0.012885	0.005385	0.999902	
3633														-0.062631	0.028908	9.808535	-0.930682	0.365563	-0.013946	-0.365602	-0.930771	0.000308	-0.012868	0.005385	0.999903	
3634														-0.066929	0.039938	9.804323	-0.930680	0.365569	-0.013947	-0.365608	-0.930769	0.000308	-0.012868	0.005385	0.999903	
3635														-0.071228	0.050968	9.800111	-0.930677	0.365575	-0.013947	-0.365615	-0.930766	0.000307	-0.012869	0.005385	0.999903	
3636														-0.064440	0.059267	9.792568	-0.930671	0.365592	-0.013942	-0.365631	-0.930760	0.000308	-0.012864	0.005384	0.999903	
3637														-0.063901	0.045249	9.793227	-0.930674	0.365583	-0.013968	-0.365622	-0.930763	0.000296	-0.012893	0.005382	0.999902	
3638														-0.078314	0.031024	9.808296	-0.930678	0.365573	-0.013980	-0.365613	-0.930767	0.000290	-0.012906	0.005381	0.999902	
3639														-0.064242	0.045778	9.778586	-0.930671	0.365590	-0.013978	-0.365630	-0.930760	0.000289	-0.012904	0.005380	0.999902	
3640														-0.065262	0.048404	9.822476	-0.930663	0.365610	-0.013995	-0.365650	-0.930752	0.000297	-0.012917	0.005394	0.999902	
3641														-0.066005	0.063030	9.807172	-0.930662	0.365613	-0.013979	-0.365653	-0.930751	0.000303	-0.012900	0.005393	0.999902	
3642														-0.064903	0.048516	9.793205	-0.930660	0.365618	-0.013975	-0.365658	-0.930749	0.000336	-0.012885	0.005423	0.999902	
3643														-0.064206	0.034503	9.793872	-0.930664	0.365608	-0.013976	-0.365647	-0.930753	0.000302	-0.012898	0.005392	0.999902	
3644														-0.066732	0.065475	9.821788	-0.930663	0.365609	-0.013987	-0.365649	-0.930753	0.000296	-0.012911	0.005389	0.999902	
3645														-0.064067	0.021589	9.809168	-0.930657	0.365627	-0.013971	-0.365667	-0.930746	0.000301	-0.012894	0.005389	0.999902	
3646														-0.064813	0.036209	9.793862	-0.930655	0.365630	-0.013990	-0.365670	-0.930744	0.000310	-0.012908	0.005404	0.999902	
3647														-0.050608	0.038255	9.808715	-0.930648	0.365650	-0.013963	-0.365689	-0.930737	0.000287	-0.012891	0.005373	0.999902	
3648														-0.066484	0.065733	9.777876	-0.930656	0.365629	-0.013962	-0.365668	-0.930745	0.000288	-0.012889	0.005374	0.999902	
3649														-0.064625	0.037195	9.779224	-0.930660	0.365620	-0.013908	-0.365659	-0.930749	0.000327	-0.012825	0.005390	0.999903	
3650														-0.064894	0.038456	9.793852	-0.930652	0.365641	-0.013929	-0.365680	-0.930741	0.000300	-0.012855	0.005373	0.999903	
3651														-0.064862	0.038460	9.779217	-0.930646	0.365656	-0.013929	-0.365696	-0.930734	0.000333	-0.012842	0.005403	0.999903	
3652														-0.051712	0.055938	9.808023	-0.930648	0.365651	-0.013923	-0.365690	-0.930737	0.000318	-0.012842	0.005388	0.999903	
3653														-0.050924	0.041781	9.808699	-0.930648	0.365653	-0.013902	-0.365692	-0.930736	0.000310	-0.012826	0.005372	0.999903	
3654														-0.063556	0.011553	9.795201	-0.930645	0.365659	-0.013886	-0.365698	-0.930733	0.000316	-0.012809	0.005372	0.999904	
3655														-0.066415	0.056641	9.807788	-0.930643	0.365665	-0.013870	-0.365704	-0.930731	0.000322	-0.012791	0.005372	0.999904	
3656														-0.052213	0.058705	9.822640	-0.930637	0.365682	-0.013876	-0.365721	-0.930725	0.000301	-0.012805	0.005355	0.999904	
3657														-0.078960	0.025584	9.765026	-0.930646	0.365657	-0.013889	-0.365696	-0.930734	0.000295	-0.012819	0.005354	0.999903	
3658														-0.064911	0.027868	9.779878	-0.930633	0.365688	-0.013916	-0.365728	-0.930722	0.000316	-0.012836	0.005384	0.999903	
3659														-0.067153	0.045818	9.837712	-0.930633	0.365690	-0.013922	-0.365729	-0.930721	0.000295	-0.012849	0.005367	0.999903	
3660														-0.067987	0.060424	9.822391	-0.930630	0.365696	-0.013933	-0.365735	-0.930719	0.000323	-0.012849	0.005397	0.999903	
3661														-0.066813	0.045143	9.793811	-0.930629	0.365698	-0.013938	-0.365737	-0.930718	0.000303	-0.012861	0.005380	0.999903	
3662														-0.066238	0.030903	9.794495	-0.930628	0.365702	-0.013939	-0.365741	-0.930717	0.000269	-0.012875	0.005348	0.999903	
3663														-0.083697	0.074207	9.792200	-0.930620	0.365721	-0.013932	-0.365760	-0.930709	0.000255	-0.012874	0.005333	0.999903	
3664														-0.067564	0.046470	9.793800	-0.930612	0.365742	-0.013950	-0.365781	-0.930701	0.000263	-0.012887	0.005347	0.999903	
3665														-0.066386	0.018599	9.809804	-0.930630	0.365695	-0.013962	-0.365734	-0.930719	0.000259	-0.012900	0.005347	0.999902	
3666														-0.053347	0.047862	9.779388	-0.930621	0.365717	-0.013983	-0.365756	-0.930711	0.000233	-0.012929	0.005331	0.999902	
3667														-0.053997	0.049201	9.794013	-0.930625	0.365707	-0.014007	-0.365746	-0.930715	0.000255	-0.012943	0.005360	0.999902	
3668														-0.053425	0.035337	9.794700	-0.930622	0.365714	-0.014021	-0.365753	-0.930712	0.000249	-0.012958	0.005359	0.999902	
3669														-0.053993	0.049253	9.764742	-0.930615	0.365731	-0.014025	-0.365771	-0.930705	0.000262	-0.012957	0.005374	0.999902	
3670														-0.083734	0.048815	9.778907	-0.930618	0.365722	-0.014038	-0.365761	-0.930709	0.000256	-0.012972	0.005372	0.999901	
3671														-0.040849	0.054204	9.823484	-0.930611	0.365741	-0.014028	-0.365781	-0.930701	0.000276	-0.012955	0.005388	0.999902	
3672														-0.070045	0.052405	9.808388	-0.930619	0.365719	-0.014052	-0.365759	-0.930710	0.000265	-0.012982	0.005387	0.999901	
3673														-0.069115	0.037712	9.794451	-0.930618	0.365724	-0.014036	-0.365763	-0.930708	0.000271	-0.012964	0.005386	0.999901	
3674														-0.068991	0.037623	9.779818	-0.930626	0.365701	-0.014047	-0.365741	-0.930717	0.000266	-0.012976	0.005385	0.999901	
3675														-0.055410	0.053721	9.779346	-0.930618	0.365722	-0.014032	-0.365762	-0.930708	0.000271	-0.012960	0.005385	0.999902	
3676														-0.055962	0.055691	9.808602	-0.930627	0.365701	-0.014015	-0.365741	-0.930717	0.000278	-0.012942	0.005385	0.999902	
3677														-0.068481	0.024804	9.780509	-0.930623	0.365709	-0.014040	-0.365749	-0.930714	0.000267	-0.012970	0.005384	0.999901	
3678														-0.055600	0.042274	9.809295	-0.930632	0.365686	-0.014038	-0.365726	-0.930723	0.000268	-0.012968	0.005383	0.999901	
3679														-0.071260	0.056572	9.808356	-0.930635	0.365679	-0.014035	-0.365719	-0.930725	0.000269	-0.012965	0.005383	0.999901	
3680														-0.070593	0.042637	9.809055	-0.930650	0.365642	-0.014053	-0.365682	-0.930740	0.000278	-0.012978	0.005397	0.999901	
3681														-0.067510	0.050263	9.801442	-0.930650	0.365640	-0.014071	-0.365680	-0.930741	0.000261	-0.013001	0.005389	0.999901	
3682														-0.064427	0.057889	9.793828	-0.930650	0.365638	-0.014090	-0.365678	-0.930741	0.000245	-0.013025	0.005381	0.999901	
3683														-0.055977	0.030642	9.809981	-0.930654	0.365629	-0.014070	-0.365669	-0.930745	0.000252	-0.013004	0.005380	0.999901	
3684														-0.071294	0.044242	9.794408	-0.930646	0.365650	-0.014071	-0.365690	-0.930737	0.000252	-0.013004	0.005380	0.999901	
3685														-0.056834	0.045898	9.794637	-0.930649	0.365641	-0.014082	-0.365681	-0.930740	0.000281	-0.013004	0.005411	0.999901	
3686														-0.071963	0.046422	9.809028	-0.930644	0.365655	-0.014095	-0.365695	-0.930735	0.000273	-0.013019	0.005409	0.999901	
3687														-0.042477	0.047525	9.780233	-0.930647	0.365647	-0.014112	-0.365687	-0.930738	0.000282	-0.013031	0.005423	0.999900	
3688														-0.043051	0.048664	9.794859	-0.930649	0.365642	-0.014105	-0.365681	-0.930740	0.000236	-0.013042	0.005377	0.999900	
3689														-0.071327	0.031977	9.780468	-0.930642	0.365659	-0.014109	-0.365698	-0.930733	0.000249	-0.013040	0.005391	0.999900	
3690														-0.058329	0.049485	9.809245	-0.930634	0.365680	-0.014103	-0.365720	-0.930725	0.000235	-0.013040	0.005376	0.999901	
3691														-0.073173	0.049086	9.809006	-0.930639	0.365667	-0.014115	-0.365707	-0.930730	0.000229	-0.013054	0.005375	0.999900	
3692														-0.058789	0.050749	9.809236	-0.930631	0.365687	-0.014127	-0.365727	-0.930722	0.000257	-0.013055	0.005406	0.999900	
3693														-0.058042	0.036892	9.809948	-0.930629	0.365691	-0.014126	-0.365731	-0.930720	0.000256	-0.013054	0.005405	0.999900	
3694														-0.073719	0.051170	9.808991	-0.930637	0.365670	-0.014124	-0.365710	-0.930729	0.000257	-0.013051	0.005404	0.999900	
3695														-0.073945	0.051763	9.808986	-0.930636	0.365672	-0.014137	-0.365712	-0.930728	0.000250	-0.013066	0.005403	0.999900	
3696														-0.044808	0.053498	9.794825	-0.930634	0.365676	-0.014162	-0.365716	-0.930726	0.000238	-0.013094	0.005401	0.999900	
3697														-0.073160	0.037156	9.780436	-0.930626	0.365698	-0.014178	-0.365738	-0.930718	0.000281	-0.013093	0.005447	0.999899	
3698														-0.058700	0.038826	9.780670	-0.930628	0.365691	-0.014169	-0.365731	-0.930720	0.000268	-0.013090	0.005432	0.999900	
3699														-0.059136	0.040127	9.795295	-0.930621	0.365709	-0.014174	-0.365749	-0.930713	0.000282	-0.013089	0.005446	0.999900	
3700														-0.075183	0.055175	9.808958	-0.930623	0.365703	-0.014187	-0.365743	-0.930716	0.000276	-0.013103	0.005446	0.999899	
3701														-0.060585	0.055988	9.794562	-0.930622	0.365706	-0.014200	-0.365747	-0.930714	0.000270	-0.013118	0.005445	0.999899	
3702														-0.045141	0.042198	9.780892	-0.930632	0.365680	-0.014227	-0.365720	-0.930725	0.000258	-0.013147	0.005443	0.999899	
3703														-0.060627	0.043201	9.809906	-0.930618	0.365715	-0.014220	-0.365756	-0.930711	0.000244	-0.013146	0.005428	0.999899	
3704														-0.075404	0.041920	9.795034	-0.930627	0.365692	-0.014262	-0.365732	-0.930720	0.000192	-0.013204	0.005395	0.999898	
3705														-0.046546	0.044378	9.795509	-0.930625	0.365696	-0.014259	-0.365736	-0.930719	0.000226	-0.013188	0.005425	0.999898	
3706														-0.076150	0.044041	9.809652	-0.930629	0.365686	-0.014263	-0.365726	-0.930723	0.000240	-0.013187	0.005440	0.999898	
3707														-0.062183	0.058670	9.779902	-0.930633	0.365676	-0.014274	-0.365716	-0.930726	0.000201	-0.013212	0.005408	0.999898	
3708														-0.077748	0.059672	9.808912	-0.930630	0.365681	-0.014292	-0.365721	-0.930724	0.000209	-0.013225	0.005422	0.999898	
3709														-0.062224	0.046037	9.795250	-0.930640	0.365657	-0.014310	-0.365697	-0.930734	0.000218	-0.013239	0.005436	0.999898	
3710														-0.076211	0.031086	9.795736	-0.930637	0.365663	-0.014316	-0.365703	-0.930732	0.000198	-0.013252	0.005420	0.999897	
3711														-0.075859	0.030171	9.766476	-0.930637	0.365664	-0.014315	-0.365704	-0.930731	0.000197	-0.013251	0.005419	0.999898	
3712														-0.063272	0.048532	9.809865	-0.930628	0.365685	-0.014334	-0.365725	-0.930723	0.000205	-0.013266	0.005433	0.999897	
3713														-0.062649	0.034748	9.810594	-0.930639	0.365657	-0.014357	-0.365698	-0.930734	0.000227	-0.013280	0.005461	0.999897	
3714														-0.077063	0.033027	9.781090	-0.930631	0.365677	-0.014379	-0.365718	-0.930726	0.000200	-0.013310	0.005445	0.999897	
3715														-0.062249	0.021484	9.811324	-0.930634	0.365670	-0.014361	-0.365711	-0.930728	0.000241	-0.013278	0.005476	0.999897	
3716														-0.064844	0.065311	9.794477	-0.930637	0.365661	-0.014373	-0.365702	-0.930732	0.000236	-0.013291	0.005476	0.999897	
3717														-0.064133	0.051230	9.795212	-0.930635	0.365666	-0.014365	-0.365706	-0.930730	0.000221	-0.013289	0.005460	0.999897	
3718														-0.063273	0.037153	9.795949	-0.930635	0.365668	-0.014350	-0.365709	-0.930729	0.000227	-0.013273	0.005459	0.999897	
3719														-0.065815	0.068473	9.823718	-0.930631	0.365676	-0.014353	-0.365717	-0.930726	0.000242	-0.013270	0.005475	0.999897	
3720														-0.063656	0.038492	9.795942	-0.930641	0.365650	-0.014379	-0.365691	-0.930736	0.000230	-0.013299	0.005473	0.999897	
3721														-0.050801	0.055355	9.810065	-0.930629	0.365679	-0.014420	-0.365720	-0.930725	0.000212	-0.013344	0.005471	0.999896	
3722														-0.049952	0.040693	9.796176	-0.930621	0.365700	-0.014425	-0.365741	-0.930717	0.000225	-0.013343	0.005485	0.999896	
3723														-0.081370	0.068495	9.794190	-0.930619	0.365705	-0.014438	-0.365745	-0.930715	0.000186	-0.013370	0.005453	0.999896	
3724														-0.066482	0.056094	9.809803	-0.930616	0.365711	-0.014456	-0.365751	-0.930713	0.000194	-0.013384	0.005468	0.999895	
3725														-0.094482	0.038785	9.780796	-0.930620	0.365701	-0.014469	-0.365742	-0.930716	0.000188	-0.013398	0.005467	0.999895	
3726														-0.051812	0.056854	9.780785	-0.930614	0.365715	-0.014467	-0.365756	-0.930711	0.000187	-0.013396	0.005466	0.999895	
3727														-0.067171	0.057875	9.809788	-0.930612	0.365721	-0.014457	-0.365762	-0.930709	0.000174	-0.013392	0.005450	0.999895	
3728														-0.051244	0.043369	9.781526	-0.930617	0.365709	-0.014476	-0.365750	-0.930713	0.000181	-0.013407	0.005463	0.999895	
3729														-0.066759	0.044537	9.810528	-0.930603	0.365742	-0.014489	-0.365783	-0.930700	0.000175	-0.013421	0.005462	0.999895	
3730														-0.066760	0.044245	9.795897	-0.930612	0.365721	-0.014491	-0.365761	-0.930709	0.000141	-0.013435	0.005431	0.999895	
3731														-0.068009	0.059284	9.795140	-0.930606	0.365736	-0.014503	-0.365776	-0.930703	0.000134	-0.013449	0.005429	0.999895	
3732														-0.067062	0.044542	9.781261	-0.930610	0.365724	-0.014516	-0.365765	-0.930707	0.000127	-0.013464	0.005427	0.999895	
3733														-0.052016	0.032166	9.796887	-0.930609	0.365727	-0.014508	-0.365767	-0.930706	0.000113	-0.013461	0.005411	0.999895	
3734														-0.066784	0.031868	9.796635	-0.930613	0.365717	-0.014517	-0.365758	-0.930710	0.000141	-0.013460	0.005441	0.999895	
3735														-0.053199	0.048487	9.796124	-0.930680	0.365545	-0.014521	-0.365586	-0.930777	0.000205	-0.013441	0.005500	0.999895	
3736														-0.068325	0.049000	9.810496	-0.930689	0.365521	-0.014535	-0.365562	-0.930787	0.000165	-0.013468	0.005467	0.999894	
3737														-0.053859	0.049597	9.796115	-0.930670	0.365571	-0.014555	-0.365611	-0.930768	0.000139	-0.013497	0.005451	0.999894	
3738														-0.069516	0.063140	9.780472	-0.930680	0.365544	-0.014577	-0.365585	-0.930778	0.000162	-0.013509	0.005480	0.999894	
3739														-0.052926	0.022625	9.812251	-0.930665	0.365580	-0.014595	-0.365621	-0.930764	0.000170	-0.013523	0.005495	0.999893	
3740														-0.070422	0.065212	9.795086	-0.930715	0.365454	-0.014593	-0.365495	-0.930813	0.000138	-0.013533	0.005462	0.999894	
3741														-0.053555	0.036032	9.767604	-0.930724	0.365431	-0.014612	-0.365472	-0.930822	0.000146	-0.013548	0.005476	0.999893	
3742														-0.069299	0.037875	9.811227	-0.930727	0.365423	-0.014601	-0.365464	-0.930826	0.000133	-0.013543	0.005460	0.999893	
3743														-0.056474	0.067980	9.795322	-0.930741	0.365386	-0.014611	-0.365428	-0.930840	0.000162	-0.013541	0.005490	0.999893	
3744														-0.070187	0.052315	9.781200	-0.930746	0.365374	-0.014645	-0.365415	-0.930845	0.000130	-0.013585	0.005472	0.999893	
3745														-0.084732	0.037983	9.796332	-0.930732	0.365407	-0.014685	-0.365448	-0.930832	0.000111	-0.013629	0.005471	0.999892	
3746														-0.087592	0.069260	9.824045	-0.930752	0.365357	-0.014669	-0.365398	-0.930852	0.000118	-0.013612	0.005470	0.999892	
3747														-0.133212	0.095323	9.807115	-0.930824	0.365174	-0.014677	-0.365215	-0.930923	0.000115	-0.013621	0.005468	0.999892	
3748														-0.011894	0.031581	9.827614	-0.930949	0.364854	-0.014663	-0.364895	-0.931049	0.000108	-0.013613	0.005452	0.999892	
3749														-0.022354	-0.028155	9.815808	-0.930966	0.364813	-0.014649	-0.364853	-0.931065	0.000080	-0.013610	0.005420	0.999893	
3750														-0.056416	0.042363	9.796824	-0.930976	0.364785	-0.014647	-0.364825	-0.931076	0.000046	-0.013621	0.005387	0.999893	
3751														-0.056943	0.043484	9.811447	-0.930965	0.364814	-0.014639	-0.364853	-0.931065	0.000034	-0.013617	0.005373	0.999893	
3752														-0.043254	0.059074	9.796301	-0.930947	0.364859	-0.014669	-0.364899	-0.931047	0.000069	-0.013632	0.005417	0.999892	
3753														-0.072269	0.044180	9.811179	-0.930933	0.364892	-0.014722	-0.364933	-0.931034	0.000078	-0.013678	0.005446	0.999892	
3754														-0.058726	0.059689	9.796030	-0.930925	0.364914	-0.014715	-0.364954	-0.931025	0.000065	-0.013676	0.005431	0.999892	
3755														-0.072505	0.044682	9.796544	-0.930912	0.364946	-0.014720	-0.364987	-0.931013	0.000078	-0.013676	0.005445	0.999892	
3756														-0.072843	0.045493	9.796538	-0.930825	0.365167	-0.014761	-0.365208	-0.930926	0.000091	-0.013708	0.005475	0.999891	
3757														-0.073255	0.046225	9.796531	-0.930807	0.365211	-0.014775	-0.365252	-0.930909	0.000083	-0.013724	0.005474	0.999891	
3758														-0.044270	0.048979	9.797042	-0.930806	0.365214	-0.014787	-0.365256	-0.930907	0.000111	-0.013725	0.005504	0.999891	
3759														-0.073802	0.047856	9.796519	-0.930822	0.365172	-0.014823	-0.365213	-0.930924	0.000127	-0.013753	0.005532	0.999890	
3760														-0.059965	0.051134	9.826024	-0.930833	0.365145	-0.014792	-0.365187	-0.930934	0.000139	-0.013719	0.005531	0.999891	
3761														-0.060478	0.064578	9.795989	-0.930848	0.365107	-0.014800	-0.365148	-0.930949	0.000085	-0.013747	0.005484	0.999890	
3762														-0.121239	0.089926	9.793385	-0.931025	0.364655	-0.014792	-0.364696	-0.931127	0.000060	-0.013752	0.005450	0.999891	
3763														-0.090051	0.063300	9.795463	-0.931292	0.363975	-0.014770	-0.364016	-0.931393	0.000093	-0.013723	0.005463	0.999891	
3764														-0.122127	0.104679	9.777966	-0.931832	0.362590	-0.014761	-0.362630	-0.931933	0.000062	-0.013734	0.005411	0.999891	
3765														-0.053396	-0.036919	9.786838	-0.932370	0.361205	-0.014722	-0.361245	-0.932471	0.000029	-0.013717	0.005345	0.999892	
3766														-0.118989	0.048919	9.824973	-0.932648	0.360487	-0.014692	-0.360527	-0.932749	0.000051	-0.013685	0.005344	0.999892	
3767														-0.090770	0.078736	9.780042	-0.932928	0.359764	-0.014657	-0.359804	-0.933028	0.000106	-0.013637	0.005372	0.999893	
3768														-0.043020	0.025607	9.798582	-0.933184	0.359097	-0.014715	-0.359138	-0.933284	0.000171	-0.013672	0.005445	0.999892	
3769														-0.178158	0.048365	9.838541	-0.933427	0.358463	-0.014786	-0.358505	-0.933528	0.000232	-0.013719	0.005518	0.999891	
3770														-0.287928	0.141860	9.801927	-0.933819	0.357441	-0.014774	-0.357484	-0.933919	0.000248	-0.013709	0.005513	0.999891	
3771														-0.318054	0.152438	9.771356	-0.934470	0.355736	-0.014771	-0.355778	-0.934571	0.000169	-0.013745	0.005414	0.999891	
3772														-0.064432	0.087387	9.839019	-0.935260	0.353657	-0.014682	-0.353696	-0.935360	0.000114	-0.013693	0.005300	0.999892	
3773														-0.176606	0.207800	9.786202	-0.936125	0.351359	-0.014697	-0.351399	-0.936226	0.000118	-0.013718	0.005275	0.999892	
3774														-0.161948	0.195333	9.801862	-0.937065	0.348845	-0.014708	-0.348884	-0.937166	0.000093	-0.013751	0.005219	0.999892	
3775														-0.177745	0.032481	9.810056	-0.938113	0.346017	-0.014704	-0.346056	-0.938214	0.000095	-0.013763	0.005177	0.999892	
3776														-0.253124	0.054716	9.792537	-0.939299	0.342782	-0.014726	-0.342823	-0.939400	0.000224	-0.013757	0.005258	0.999892	
3777														-0.132959	0.331523	9.795418	-0.940569	0.339285	-0.014705	-0.339324	-0.940670	0.000143	-0.013784	0.005124	0.999892	
3778														-0.271754	0.375866	9.789886	-0.941984	0.335333	-0.014748	-0.335370	-0.942086	0.000057	-0.013875	0.005000	0.999891	
3779														-0.060191	0.308384	9.783675	-0.943405	0.331319	-0.014692	-0.331356	-0.943506	0.000096	-0.013830	0.004958	0.999892	
3780														0.203607	-0.091369	9.766827	-0.944746	0.327472	-0.014720	-0.327509	-0.944848	0.000082	-0.013881	0.004898	0.999892	
3781														0.139345	-0.062448	9.866572	-0.945939	0.324006	-0.014781	-0.324042	-0.946043	0.000000	-0.013984	0.004790	0.999891	
3782														0.157320	0.172448	9.781461	-0.947222	0.320235	-0.014819	-0.320271	-0.947326	0.000049	-0.014022	0.004792	0.999890	
3783														0.025336	0.395736	9.810694	-0.948969	0.315022	-0.014770	-0.315056	-0.949073	-0.000049	-0.014033	0.004607	0.999891	
3784														-0.216665	0.305768	9.809440	-0.950901	0.309143	-0.014734	-0.309174	-0.951005	-0.000144	-0.014057	0.004418	0.999891	
3785														-0.440654	-0.021841	9.791435	-0.952481	0.304241	-0.014752	-0.304272	-0.952585	-0.000141	-0.014096	0.004355	0.999891	
3786														-0.274421	-0.046845	9.752844	-0.954305	0.298466	-0.014840	-0.298498	-0.954410	-0.000104	-0.014195	0.004330	0.999890	
3787														-0.154018	-0.277359	9.841177	-0.955992	0.293018	-0.014845	-0.293048	-0.956098	-0.000137	-0.014233	0.004219	0.999890	
3788														-0.072553	-0.017449	9.771156	-0.957511	0.288013	-0.014880	-0.288042	-0.957618	-0.000171	-0.014298	0.004123	0.999889	
3789														-0.161765	0.164423	9.818137	-0.959035	0.282896	-0.014918	-0.282925	-0.959142	-0.000187	-0.014362	0.004041	0.999889	
3790														-0.161968	0.162401	9.788882	-0.960617	0.277478	-0.014849	-0.277506	-0.960724	-0.000207	-0.014323	0.003922	0.999890	
3791														-0.266582	0.159166	9.786206	-0.962189	0.271974	-0.014904	-0.272001	-0.962297	-0.000240	-0.014407	0.003823	0.999889	
3792														-0.171717	0.115891	9.790998	-0.963779	0.266281	-0.014982	-0.266308	-0.963888	-0.000197	-0.014493	0.003800	0.999888	
3793														-0.133906	0.063967	9.809373	-0.965404	0.260330	-0.014932	-0.260355	-0.965513	-0.000216	-0.014473	0.003679	0.999888	
3794														0.035265	-0.204946	9.783791	-0.966942	0.254555	-0.015010	-0.254580	-0.967052	-0.000301	-0.014592	0.003530	0.999887	
3795														-0.044222	-0.099890	9.790882	-0.968495	0.248579	-0.015020	-0.248603	-0.968605	-0.000292	-0.014621	0.003451	0.999887	
3796														-0.061784	0.211412	9.803952	-0.970031	0.242517	-0.015040	-0.242539	-0.970142	-0.000383	-0.014684	0.003276	0.999887	
3797														-0.112410	0.368876	9.853260	-0.971582	0.236218	-0.015121	-0.236240	-0.971695	-0.000378	-0.014782	0.003205	0.999886	
3798														-0.087410	0.038801	9.753268	-0.973085	0.229957	-0.015015	-0.229977	-0.973196	-0.000403	-0.014705	0.003060	0.999887	
3799														-0.126136	-0.131883	9.804706	-0.974542	0.223694	-0.015122	-0.223714	-0.974655	-0.000374	-0.014823	0.003018	0.999886	
3800														-0.024655	0.086643	9.796850	-0.976135	0.216644	-0.015050	-0.216665	-0.976246	-0.000239	-0.014745	0.003027	0.999887	
3801														-0.283892	0.162674	9.799816	-0.977763	0.209170	-0.015108	-0.209190	-0.977875	-0.000256	-0.014827	0.002910	0.999886	
3802														-0.073037	0.275595	9.844722	-0.979313	0.201788	-0.015091	-0.201807	-0.979425	-0.000264	-0.014834	0.002787	0.999886	
3803														-0.246402	0.121560	9.758907	-0.980862	0.194119	-0.015088	-0.194137	-0.980974	-0.000303	-0.014860	0.002632	0.999886	
3804														-0.048914	-0.006703	9.815542	-0.982435	0.185996	-0.015096	-0.186014	-0.982547	-0.000227	-0.014875	0.002585	0.999886	
3805														-0.027384	0.028620	9.799823	-0.983956	0.177782	-0.014992	-0.177798	-0.984067	-0.000290	-0.014805	0.002381	0.999888	
3806														0.157040	0.019476	9.806331	-0.985341	0.169925	-0.015109	-0.169940	-0.985454	-0.000299	-0.014940	0.002273	0.999886	
3807														0.095113	0.078176	9.772181	-0.986594	0.162499	-0.015043	-0.162514	-0.986706	-0.000271	-0.014887	0.002177	0.999887	
3808														0.104525	-0.113274	9.825906	-0.987709	0.155575	-0.015085	-0.155588	-0.987822	-0.000299	-0.014948	0.002051	0.999886	
3809														0.118772	-0.155215	9.799137	-0.988669	0.149359	-0.015049	-0.149372	-0.988781	-0.000233	-0.014915	0.002018	0.999887	
3810														0.158595	0.014544	9.851026	-0.989487	0.143836	-0.015051	-0.143847	-0.989600	-0.000315	-0.014940	0.001853	0.999887	
3811														0.165177	-0.048767	9.766310	-0.990203	0.138827	-0.014989	-0.138839	-0.990315	-0.000290	-0.014884	0.001794	0.999888	
3812														0.040710	0.005558	9.774110	-0.990815	0.134394	-0.014989	-0.134404	-0.990927	-0.000323	-0.014897	0.001695	0.999888	
3813														-0.036233	-0.092841	9.820220	-0.991376	0.130184	-0.015046	-0.130194	-0.991488	-0.000296	-0.014956	0.001666	0.999887	
3814														-0.193090	0.010037	9.809815	-0.991916	0.126003	-0.015021	-0.126014	-0.992028	-0.000277	-0.014936	0.001619	0.999887	
3815														-0.030900	0.032746	9.799800	-0.992419	0.121970	-0.015081	-0.121981	-0.992532	-0.000253	-0.015000	0.001589	0.999886	
3816														-0.078422	0.079886	9.810567	-0.992890	0.118074	-0.015065	-0.118083	-0.993004	-0.000287	-0.014994	0.001494	0.999886	
3817														-0.081686	0.137380	9.749027	-0.993377	0.113914	-0.015027	-0.113923	-0.993490	-0.000264	-0.014959	0.001450	0.999887	
3818														-0.074680	0.066750	9.826015	-0.993859	0.109627	-0.015011	-0.109633	-0.993972	-0.000372	-0.014961	0.001276	0.999887	
3819														-0.231001	-0.147465	9.757168	-0.994364	0.104949	-0.015044	-0.104958	-0.994477	-0.000218	-0.014983	0.001362	0.999887	
3820														0.064417	-0.147749	9.811971	-0.994833	0.100408	-0.015002	-0.100415	-0.994946	-0.000283	-0.014955	0.001225	0.999887	
3821														0.017416	-0.102216	9.808110	-0.995245	0.096232	-0.015038	-0.096238	-0.995358	-0.000280	-0.014995	0.001169	0.999887	
3822														0.241309	-0.032822	9.842492	-0.995550	0.093026	-0.015036	-0.093032	-0.995663	-0.000280	-0.014997	0.001120	0.999887	
3823														0.113474	-0.146071	9.769767	-0.995788	0.090452	-0.014999	-0.090457	-0.995900	-0.000295	-0.014965	0.001063	0.999887	
3824														0.062329	-0.052523	9.807531	-0.995992	0.088167	-0.015066	-0.088173	-0.996105	-0.000312	-0.015035	0.001018	0.999886	
3825														-0.018835	-0.003134	9.816905	-0.996164	0.086210	-0.015004	-0.086216	-0.996276	-0.000251	-0.014970	0.001044	0.999887	
3826														-0.079369	0.034871	9.783511	-0.996311	0.084498	-0.014996	-0.084502	-0.996423	-0.000366	-0.014974	0.000903	0.999887	
3827														-0.082444	0.081795	9.795886	-0.996451	0.082815	-0.015073	-0.082819	-0.996565	-0.000346	-0.015050	0.000904	0.999886	
3828														-0.053612	0.046788	9.798659	-0.996596	0.081056	-0.015042	-0.081060	-0.996709	-0.000312	-0.015017	0.000909	0.999887	
3829														0.005347	-0.055386	9.805711	-0.996715	0.079558	-0.015062	-0.079563	-0.996829	-0.000327	-0.015040	0.000873	0.999887	
3830														0.064305	-0.157561	9.812762	-0.996835	0.078061	-0.015082	-0.078065	-0.996948	-0.000342	-0.015062	0.000837	0.999886	
3831														-0.008553	0.050765	9.800294	-0.996914	0.077026	-0.015132	-0.077030	-0.997029	-0.000292	-0.015109	0.000874	0.999885	
3832														-0.150354	0.170697	9.818648	-0.996992	0.076008	-0.015130	-0.076011	-0.997107	-0.000340	-0.015112	0.000811	0.999885	
3833														-0.117159	0.087090	9.779834	-0.997096	0.074633	-0.015132	-0.074637	-0.997211	-0.000336	-0.015115	0.000794	0.999885	
3834														-0.121561	0.047195	9.792568	-0.997232	0.072770	-0.015155	-0.072773	-0.997347	-0.000330	-0.015139	0.000773	0.999885	
3835														-0.125963	0.007300	9.805302	-0.997367	0.070906	-0.015179	-0.070909	-0.997483	-0.000325	-0.015164	0.000752	0.999885	
3836														-0.043739	0.057256	9.813511	-0.997496	0.069080	-0.015189	-0.069083	-0.997611	-0.000284	-0.015172	0.000766	0.999885	
3837														-0.059101	0.018543	9.785421	-0.997615	0.067348	-0.015150	-0.067351	-0.997729	-0.000279	-0.015134	0.000742	0.999885	
3838														-0.022026	-0.074531	9.820604	-0.997723	0.065724	-0.015132	-0.065727	-0.997838	-0.000266	-0.015116	0.000729	0.999885	
3839														-0.116919	-0.034423	9.800393	-0.997814	0.064314	-0.015184	-0.064317	-0.997929	-0.000306	-0.015173	0.000671	0.999885	
3840														-0.134509	0.007233	9.812457	-0.997904	0.062889	-0.015219	-0.062892	-0.998020	-0.000294	-0.015207	0.000664	0.999884	
3841														0.032682	0.061238	9.831159	-0.998007	0.061231	-0.015245	-0.061234	-0.998123	-0.000291	-0.015234	0.000643	0.999884	
3842														-0.273577	0.077727	9.803757	-0.998131	0.059221	-0.015074	-0.059225	-0.998245	-0.000217	-0.015061	0.000676	0.999886	
3843														-0.014229	0.104281	9.783329	-0.998232	0.057484	-0.015139	-0.057488	-0.998346	-0.000176	-0.015124	0.000695	0.999885	
3844														-0.023933	0.086042	9.798533	-0.998332	0.055682	-0.015238	-0.055684	-0.998448	-0.000300	-0.015231	0.000549	0.999884	
3845														0.011967	0.036876	9.787601	-0.998426	0.053993	-0.015197	-0.053995	-0.998541	-0.000311	-0.015191	0.000510	0.999884	
3846														-0.101145	-0.072182	9.802958	-0.998510	0.052412	-0.015191	-0.052414	-0.998625	-0.000254	-0.015184	0.000542	0.999885	
3847														-0.156975	-0.014691	9.812760	-0.998607	0.050534	-0.015183	-0.050536	-0.998722	-0.000239	-0.015175	0.000529	0.999885	
3848														-0.256737	0.035963	9.762409	-0.998714	0.048377	-0.015153	-0.048379	-0.998829	-0.000214	-0.015145	0.000519	0.999885	
3849														-0.189455	-0.012583	9.811370	-0.998830	0.045938	-0.015124	-0.045938	-0.998944	-0.000343	-0.015123	0.000352	0.999886	
3850														-0.116539	0.114218	9.808350	-0.998931	0.043668	-0.015170	-0.043669	-0.999046	-0.000257	-0.015166	0.000406	0.999885	
3851														-0.148943	0.003902	9.782914	-0.999023	0.041489	-0.015254	-0.041490	-0.999139	-0.000276	-0.015253	0.000357	0.999884	
3852														-0.179390	0.072621	9.807842	-0.999120	0.039112	-0.015172	-0.039113	-0.999235	-0.000250	-0.015170	0.000344	0.999885	
3853														-0.180015	0.149373	9.760202	-0.999221	0.036420	-0.015175	-0.036419	-0.999337	-0.000288	-0.015175	0.000265	0.999885	
3854														-0.113136	0.136223	9.836945	-0.999326	0.033348	-0.015336	-0.033347	-0.999444	-0.000280	-0.015337	0.000232	0.999882	
3855														-0.033438	-0.007553	9.788232	-0.999425	0.030248	-0.015323	-0.030246	-0.999542	-0.000338	-0.015326	0.000126	0.999883	
3856														-0.099332	-0.003865	9.800045	-0.999513	0.027195	-0.015285	-0.027193	-0.999630	-0.000312	-0.015288	0.000104	0.999883	
3857														-0.082172	0.100177	9.795926	-0.999592	0.024122	-0.015310	-0.024119	-0.999709	-0.000411	-0.015316	-0.000042	0.999883	
3858														-0.065452	0.027874	9.799984	-0.999667	0.020849	-0.015237	-0.020846	-0.999783	-0.000311	-0.015240	0.000007	0.999884	
3859														-0.044490	0.053325	9.785030	-0.999726	0.017726	-0.015287	-0.017723	-0.999843	-0.000368	-0.015292	-0.000097	0.999883	
3860														0.052512	0.051419	9.803864	-0.999777	0.014589	-0.015274	-0.014585	-0.999894	-0.000362	-0.015278	-0.000139	0.999883	
3861														0.042971	-0.033019	9.807403	-0.999813	0.011728	-0.015360	-0.011723	-0.999931	-0.000431	-0.015364	-0.000250	0.999882	
3862														0.029503	-0.106343	9.766216	-0.999842	0.008979	-0.015356	-0.008974	-0.999960	-0.000432	-0.015359	-0.000295	0.999882	
3863														0.060058	-0.069881	9.839263	-0.999862	0.006355	-0.015342	-0.006350	-0.999980	-0.000356	-0.015344	-0.000258	0.999882	
3864														-0.084236	-0.106592	9.820212	-0.999873	0.004103	-0.015398	-0.004097	-0.999992	-0.000427	-0.015399	-0.000364	0.999881	
3865														-0.127974	-0.015188	9.799483	-0.999881	0.001539	-0.015372	-0.001532	-0.999999	-0.000474	-0.015373	-0.000450	0.999882	
3866														-0.261774	0.228623	9.782635	-0.999882	-0.000852	-0.015317	0.000859	-1.000000	-0.000469	-0.015316	-0.000482	0.999883	
3867														-0.033549	0.160588	9.780831	-0.999877	-0.003278	-0.015367	0.003284	-0.999995	-0.000410	-0.015365	-0.000461	0.999882	
3868														-0.174172	-0.087103	9.786135	-0.999865	-0.005751	-0.015398	0.005760	-0.999983	-0.000565	-0.015395	-0.000653	0.999881	
3869														-0.030186	-0.048492	9.805198	-0.999848	-0.008347	-0.015302	0.008357	-0.999965	-0.000579	-0.015296	-0.000707	0.999883	
3870														0.061739	-0.034818	9.808566	-0.999825	-0.010743	-0.015338	0.010752	-0.999942	-0.000517	-0.015331	-0.000682	0.999882	
3871														0.036527	-0.015481	9.777310	-0.999798	-0.012983	-0.015349	0.012992	-0.999915	-0.000514	-0.015341	-0.000713	0.999882	
3872														-0.089449	0.037820	9.798798	-0.999765	-0.015286	-0.015373	0.015298	-0.999883	-0.000654	-0.015362	-0.000889	0.999882	
3873														-0.063236	0.115781	9.781745	-0.999729	-0.017495	-0.015366	0.017506	-0.999847	-0.000600	-0.015353	-0.000869	0.999882	
3874														-0.050574	0.025765	9.801085	-0.999683	-0.019955	-0.015345	0.019966	-0.999800	-0.000571	-0.015331	-0.000877	0.999882	
3875														-0.076342	-0.019998	9.802038	-0.999624	-0.022745	-0.015313	0.022757	-0.999741	-0.000627	-0.015295	-0.000975	0.999883	
3876														-0.042176	-0.020314	9.774216	-0.999562	-0.025348	-0.015288	0.025359	-0.999678	-0.000532	-0.015269	-0.000919	0.999883	
3877														-0.122144	0.006978	9.798866	-0.999489	-0.028108	-0.015242	0.028119	-0.999604	-0.000508	-0.015222	-0.000936	0.999884	
3878														-0.136712	0.098318	9.794108	-0.999404	-0.030964	-0.015235	0.030976	-0.999520	-0.000584	-0.015210	-0.001056	0.999884	
3879														-0.262715	0.115550	9.802444	-0.999300	-0.034136	-0.015279	0.034150	-0.999417	-0.000603	-0.015249	-0.001125	0.999883	
3880														-0.178182	0.110758	9.806414	-0.999186	-0.037340	-0.015262	0.037353	-0.999302	-0.000609	-0.015229	-0.001178	0.999883	
3881														-0.097503	0.084908	9.767148	-0.999028	-0.041347	-0.015260	0.041360	-0.999144	-0.000588	-0.015223	-0.001219	0.999883	
3882														-0.186954	0.004044	9.766785	-0.998843	-0.045621	-0.015216	0.045634	-0.998958	-0.000508	-0.015177	-0.001201	0.999884	
3883														-0.198833	0.084727	9.821363	-0.998635	-0.049961	-0.015203	0.049976	-0.998750	-0.000572	-0.015155	-0.001331	0.999884	
3884														-0.007982	0.071678	9.815861	-0.998428	-0.053956	-0.015159	0.053971	-0.998542	-0.000605	-0.015105	-0.001423	0.999885	
3885														-0.068899	0.151969	9.765535	-0.998201	-0.058000	-0.015181	0.058018	-0.998315	-0.000697	-0.015115	-0.001576	0.999885	
3886														-0.012545	0.256503	9.836932	-0.997962	-0.061968	-0.015198	0.061985	-0.998077	-0.000664	-0.015128	-0.001605	0.999884	
3887														-0.272417	-0.027399	9.793537	-0.997694	-0.066141	-0.015211	0.066158	-0.997809	-0.000627	-0.015136	-0.001631	0.999884	
3888														-0.340167	0.118521	9.784008	-0.997329	-0.071420	-0.015268	0.071439	-0.997445	-0.000687	-0.015180	-0.001776	0.999883	
3889														-0.195857	-0.016558	9.825870	-0.996883	-0.077421	-0.015149	0.077440	-0.996997	-0.000670	-0.015051	-0.001841	0.999885	
3890														-0.233955	-0.007234	9.808971	-0.996351	-0.084023	-0.014986	0.084042	-0.996462	-0.000635	-0.014880	-0.001892	0.999888	
3891														-0.171573	-0.024013	9.783206	-0.995789	-0.090442	-0.014954	0.090461	-0.995900	-0.000596	-0.014838	-0.001946	0.999888	
3892														-0.035971	0.006856	9.788223	-0.995166	-0.097068	-0.014926	0.097087	-0.995276	-0.000585	-0.014799	-0.002031	0.999888	
3893														0.061505	-0.068149	9.825376	-0.994515	-0.103523	-0.014907	0.103544	-0.994625	-0.000640	-0.014760	-0.002180	0.999889	
3894														-0.112316	0.100908	9.824677	-0.993855	-0.109694	-0.014834	0.109713	-0.993963	-0.000519	-0.014687	-0.002143	0.999890	
3895														-0.253662	0.215220	9.754433	-0.993135	-0.116027	-0.014864	0.116048	-0.993243	-0.000584	-0.014695	-0.002304	0.999889	
3896														-0.179369	0.147655	9.848909	-0.992315	-0.122849	-0.014825	0.122870	-0.992423	-0.000519	-0.014649	-0.002336	0.999890	
3897														-0.209201	0.033851	9.764134	-0.991416	-0.129909	-0.014753	0.129932	-0.991523	-0.000614	-0.014549	-0.002525	0.999891	
3898														-0.091948	0.040482	9.769508	-0.990468	-0.136943	-0.014849	0.136968	-0.990575	-0.000643	-0.014621	-0.002670	0.999890	
3899														0.038675	0.131906	9.816190	-0.989427	-0.144274	-0.014803	0.144301	-0.989534	-0.000735	-0.014542	-0.002864	0.999890	
3900														-0.195400	0.111000	9.761561	-0.988341	-0.151530	-0.014846	0.151556	-0.988448	-0.000672	-0.014572	-0.002915	0.999890	
3901														-0.279912	0.022868	9.849007	-0.987198	-0.158814	-0.014771	0.158841	-0.987304	-0.000667	-0.014477	-0.003005	0.999891	
3902														-0.100674	-0.000596	9.785406	-0.986008	-0.166050	-0.014678	0.166078	-0.986112	-0.000691	-0.014359	-0.003119	0.999892	
3903														-0.093182	-0.012671	9.800919	-0.984881	-0.172597	-0.014825	0.172628	-0.984987	-0.000792	-0.014466	-0.003339	0.999890	
3904														0.036538	0.007574	9.791936	-0.983743	-0.178979	-0.014713	0.179011	-0.983847	-0.000904	-0.014314	-0.003523	0.999891	
3905														-0.063172	-0.006633	9.846182	-0.982507	-0.185634	-0.014804	0.185666	-0.982612	-0.000838	-0.014391	-0.003572	0.999890	
3906														-0.049340	0.049949	9.727302	-0.981164	-0.192604	-0.014889	0.192640	-0.981269	-0.000980	-0.014422	-0.003830	0.999889	
3907														-0.010128	0.067601	9.802062	-0.979600	-0.200408	-0.014873	0.200443	-0.979705	-0.000907	-0.014390	-0.003870	0.999889	
3908														-0.169890	0.129540	9.791517	-0.977833	-0.208858	-0.014896	0.208895	-0.977938	-0.000995	-0.014360	-0.004085	0.999889	
3909														-0.301255	0.057393	9.728666	-0.975788	-0.218205	-0.014942	0.218245	-0.975893	-0.001082	-0.014346	-0.004317	0.999888	
3910														-0.121146	-0.148401	9.848359	-0.973588	-0.227829	-0.014842	0.227870	-0.973691	-0.001053	-0.014212	-0.004407	0.999889	
3911														-0.182737	-0.185976	9.802335	-0.971255	-0.237577	-0.014837	0.237619	-0.971358	-0.001108	-0.014149	-0.004601	0.999889	
3912														-0.167382	-0.021185	9.811800	-0.968713	-0.247744	-0.014797	0.247784	-0.968815	-0.000949	-0.014101	-0.004586	0.999890	
3913														0.233595	0.029025	9.772734	-0.965882	-0.258552	-0.014922	0.258597	-0.965985	-0.001115	-0.014126	-0.004936	0.999888	
3914														-0.602965	0.067516	9.887830	-0.962853	-0.269616	-0.014916	0.269662	-0.962954	-0.001152	-0.014053	-0.005132	0.999888	
3915														-0.054746	0.222644	9.691976	-0.959634	-0.280857	-0.014931	0.280906	-0.959734	-0.001262	-0.013975	-0.005405	0.999888	
3916														-0.199531	0.047258	9.880868	-0.956414	-0.291631	-0.014942	0.291680	-0.956515	-0.001210	-0.013939	-0.005515	0.999888	
3917														-0.111383	0.039217	9.768553	-0.953100	-0.302283	-0.015007	0.302335	-0.953201	-0.001283	-0.013917	-0.005761	0.999887	
3918														-0.083477	0.074681	9.636852	-0.949691	-0.312827	-0.015033	0.312881	-0.949791	-0.001323	-0.013865	-0.005960	0.999886	
3919														-0.105691	-0.101424	9.993509	-0.946114	-0.323482	-0.015088	0.323538	-0.946214	-0.001359	-0.013837	-0.006168	0.999885	
3920														0.043420	-0.078175	9.751589	-0.942487	-0.333902	-0.015090	0.333959	-0.942587	-0.001364	-0.013768	-0.006325	0.999885	
3921														-0.039832	0.065592	9.727782	-0.938919	-0.343807	-0.015087	0.343866	-0.939018	-0.001438	-0.013673	-0.006538	0.999885	
3922														0.010241	0.093409	9.920657	-0.935392	-0.353291	-0.015068	0.353351	-0.935490	-0.001457	-0.013582	-0.006687	0.999885	
3923														-0.048677	0.272779	9.735903	-0.931860	-0.362509	-0.014949	0.362570	-0.931955	-0.001506	-0.013386	-0.006823	0.999887	
3924														-0.157870	0.309909	9.758028	-0.928257	-0.371638	-0.014985	0.371701	-0.928351	-0.001547	-0.013337	-0.007006	0.999887	
3925														-0.082995	0.198731	9.765662	-0.924681	-0.380444	-0.015092	0.380508	-0.924776	-0.001579	-0.013356	-0.007203	0.999885	
3926														-0.037898	0.213737	9.826704	-0.921017	-0.389231	-0.015064	0.389296	-0.921111	-0.001544	-0.013275	-0.007286	0.999885	
3927														-0.081725	0.116455	9.782861	-0.917270	-0.397985	-0.014960	0.398050	-0.917363	-0.001506	-0.013125	-0.007337	0.999887	
3928														-0.088972	-0.090036	9.846718	-0.913587	-0.406369	-0.014910	0.406435	-0.913678	-0.001553	-0.012992	-0.007479	0.999888	
3929														-0.107052	-0.187639	9.789459	-0.909922	-0.414510	-0.014960	0.414577	-0.910013	-0.001529	-0.012980	-0.007594	0.999887	
3930														-0.030725	-0.002993	9.789109	-0.906208	-0.422570	-0.014859	0.422637	-0.906298	-0.001504	-0.012831	-0.007643	0.999888	
3931														-0.010085	0.148344	9.859900	-0.902302	-0.430848	-0.014905	0.430915	-0.902392	-0.001442	-0.012828	-0.007724	0.999888	
3932														-0.006099	0.219678	9.785079	-0.898272	-0.439184	-0.014978	0.439254	-0.898362	-0.001560	-0.012771	-0.007981	0.999887	
3933														-0.085861	0.167654	9.796374	-0.894188	-0.447440	-0.014994	0.447511	-0.894277	-0.001617	-0.012685	-0.008156	0.999886	
3934														-0.142142	-0.102955	9.770150	-0.889957	-0.455798	-0.015007	0.455871	-0.890045	-0.001607	-0.012624	-0.008272	0.999886	
3935														-0.156376	-0.001277	9.766851	-0.885535	-0.464332	-0.014939	0.464405	-0.885622	-0.001623	-0.012476	-0.008375	0.999887	
3936														-0.069533	0.077770	9.858380	-0.880928	-0.473013	-0.014987	0.473087	-0.881015	-0.001570	-0.012461	-0.008474	0.999886	
3937														-0.158028	-0.055700	9.767929	-0.876211	-0.481697	-0.014900	0.481771	-0.876295	-0.001609	-0.012282	-0.008589	0.999888	
3938														-0.181486	-0.058334	9.839876	-0.871456	-0.490251	-0.014769	0.490324	-0.871539	-0.001575	-0.012099	-0.008614	0.999890	
3939														-0.219959	0.004721	9.762724	-0.866749	-0.498528	-0.014738	0.498601	-0.866830	-0.001589	-0.011983	-0.008726	0.999890	
3940														-0.169651	0.056999	9.808720	-0.861942	-0.506794	-0.014677	0.506869	-0.862022	-0.001618	-0.011832	-0.008834	0.999891	
3941														-0.086266	0.229855	9.736971	-0.856764	-0.515500	-0.014696	0.515576	-0.856843	-0.001645	-0.011744	-0.008986	0.999891	
3942														-0.077753	0.097982	9.872309	-0.851273	-0.524518	-0.014692	0.524595	-0.851350	-0.001708	-0.011612	-0.009162	0.999891	
3943														-0.046662	-0.058414	9.759817	-0.845547	-0.533697	-0.014741	0.533776	-0.845624	-0.001685	-0.011566	-0.009293	0.999890	
3944														-0.039320	-0.030551	9.891866	-0.839574	-0.543047	-0.014676	0.543125	-0.839651	-0.001630	-0.011438	-0.009339	0.999891	
3945														-0.189657	-0.007308	9.808659	-0.833460	-0.552387	-0.014601	0.552466	-0.833534	-0.001664	-0.011251	-0.009454	0.999892	
3946														-0.100049	0.010666	9.667112	-0.827370	-0.561470	-0.014512	0.561548	-0.827442	-0.001628	-0.011094	-0.009496	0.999893	
3947														-0.095976	-0.079310	9.845001	-0.821156	-0.570518	-0.014550	0.570597	-0.821229	-0.001642	-0.011012	-0.009650	0.999893	
3948														-0.179103	-0.101605	9.851104	-0.815715	-0.578193	-0.014633	0.578274	-0.815787	-0.001626	-0.010997	-0.009789	0.999892	
3949														-0.262229	-0.123901	9.857207	-0.810273	-0.585868	-0.014717	0.585950	-0.810345	-0.001610	-0.010982	-0.009928	0.999890	
3950														-0.181351	-0.100873	9.737105	-0.804646	-0.593572	-0.014767	0.593654	-0.804718	-0.001586	-0.010942	-0.010043	0.999890	
3951														-0.189637	-0.180266	9.766993	-0.799547	-0.600423	-0.014716	0.600507	-0.799618	-0.001643	-0.010781	-0.010151	0.999890	
3952														-0.118796	-0.003869	9.813023	-0.794820	-0.606667	-0.014750	0.606751	-0.794891	-0.001600	-0.010754	-0.010221	0.999890	
3953														0.007842	0.422404	9.830152	-0.789822	-0.613158	-0.014785	0.613243	-0.789892	-0.001655	-0.010664	-0.010374	0.999889	
3954														0.228091	0.267689	9.758318	-0.784391	-0.620091	-0.014763	0.620177	-0.784460	-0.001716	-0.010517	-0.010501	0.999890	
3955														0.160882	0.007540	9.845440	-0.778744	-0.627167	-0.014818	0.627254	-0.778813	-0.001685	-0.010484	-0.010607	0.999889	
3956														0.196318	0.074892	9.758930	-0.773397	-0.633748	-0.014859	0.633836	-0.773465	-0.001683	-0.010427	-0.010720	0.999888	
3957														0.174610	0.228377	9.873393	-0.768094	-0.640163	-0.014947	0.640253	-0.768163	-0.001647	-0.010427	-0.010835	0.999887	
3958														0.194979	-0.097827	9.775593	-0.763198	-0.645992	-0.014928	0.646082	-0.763267	-0.001610	-0.010354	-0.010873	0.999887	
3959														0.382551	-0.176250	9.803189	-0.758544	-0.651451	-0.014905	0.651541	-0.758612	-0.001583	-0.010276	-0.010912	0.999888	
3960														-0.147537	0.067607	9.737138	-0.753886	-0.656835	-0.014936	0.656926	-0.753953	-0.001611	-0.010203	-0.011027	0.999887	
3961														0.213118	0.501161	9.859300	-0.748758	-0.662670	-0.015123	0.662764	-0.748827	-0.001633	-0.010242	-0.011246	0.999884	
3962														0.118506	0.035021	9.798861	-0.742927	-0.669203	-0.015049	0.669296	-0.742994	-0.001587	-0.010119	-0.011251	0.999885	
3963														-0.117803	-0.437635	9.831478	-0.737407	-0.675282	-0.015034	0.675375	-0.737472	-0.001654	-0.009970	-0.011373	0.999886	
3964														0.010164	0.033238	9.747799	-0.732225	-0.680897	-0.015017	0.680992	-0.732289	-0.001719	-0.009826	-0.011485	0.999886	
3965														0.283804	-0.040933	9.927609	-0.727356	-0.686096	-0.015031	0.686192	-0.727418	-0.001807	-0.009694	-0.011629	0.999885	
3966														0.245559	-0.131128	9.764256	-0.722823	-0.690870	-0.015044	0.690966	-0.722885	-0.001801	-0.009631	-0.011696	0.999885	
3967														0.266819	-0.152817	9.795122	-0.718715	-0.695141	-0.015078	0.695239	-0.718776	-0.001838	-0.009560	-0.011804	0.999885	
3968														0.042326	-0.132760	9.765659	-0.715361	-0.698594	-0.015016	0.698691	-0.715421	-0.001794	-0.009489	-0.011774	0.999886	
3969														0.200770	0.200180	9.832707	-0.710797	-0.703237	-0.015006	0.703335	-0.710857	-0.001822	-0.009385	-0.011849	0.999886	
3970														0.167261	0.600014	9.784420	-0.705495	-0.708554	-0.015097	0.708653	-0.705555	-0.001840	-0.009348	-0.011996	0.999884	
3971														0.239662	0.498796	9.731347	-0.699517	-0.714453	-0.015252	0.714555	-0.699577	-0.001884	-0.009324	-0.012216	0.999882	
3972														-0.061568	-0.284299	9.920872	-0.694798	-0.719043	-0.015234	0.719145	-0.694857	-0.001863	-0.009246	-0.012250	0.999882	
3973														-0.101753	-0.944218	9.744535	-0.690367	-0.723299	-0.015250	0.723403	-0.690423	-0.002064	-0.009036	-0.012456	0.999882	
3974														-0.187621	-0.274363	9.853578	-0.686382	-0.727082	-0.015220	0.727186	-0.686438	-0.002010	-0.008986	-0.012448	0.999882	
3975														0.129365	-0.321659	9.742277	-0.681396	-0.731758	-0.015128	0.731861	-0.681451	-0.002027	-0.008826	-0.012453	0.999884	
3976														0.050951	-0.373454	9.795906	-0.676529	-0.736260	-0.015154	0.736363	-0.676584	-0.001980	-0.008795	-0.012498	0.999883	
3977														-0.065887	-0.093986	9.802110	-0.671852	-0.740532	-0.015041	0.740634	-0.671906	-0.001905	-0.008696	-0.012419	0.999885	
3978														-0.070166	-0.120983	9.757826	-0.667108	-0.744811	-0.014932	0.744912	-0.667161	-0.001858	-0.008578	-0.012363	0.999887	
3979														0.032712	0.261431	9.807722	-0.662629	-0.748801	-0.014797	0.748901	-0.662679	-0.001951	-0.008344	-0.012374	0.999889	
3980														-0.287482	0.136201	9.757678	-0.658096	-0.752789	-0.014760	0.752888	-0.658146	-0.001916	-0.008272	-0.012374	0.999889	
3981														-0.153797	0.325483	9.839641	-0.653725	-0.756585	-0.014910	0.756686	-0.653776	-0.001848	-0.008349	-0.012490	0.999887	
3982														-0.027063	-0.009559	9.804414	-0.649112	-0.760549	-0.014825	0.760649	-0.649161	-0.001882	-0.008192	-0.012498	0.999888	
3983														-0.064827	-0.360864	9.743474	-0.644562	-0.764408	-0.014842	0.764509	-0.644611	-0.001867	-0.008140	-0.012550	0.999888	
3984														0.053893	-0.164228	9.824535	-0.639823	-0.768377	-0.014951	0.768478	-0.639874	-0.001717	-0.008247	-0.012588	0.999887	
3985														0.106154	-0.190990	9.857305	-0.634999	-0.772370	-0.014878	0.772471	-0.635047	-0.001821	-0.008042	-0.012650	0.999888	
3986														0.036421	-0.351400	9.691105	-0.630313	-0.776198	-0.014906	0.776300	-0.630361	-0.001784	-0.008011	-0.012696	0.999887	
3987														-0.070170	-0.104841	9.875033	-0.625680	-0.779935	-0.015025	0.780039	-0.625729	-0.001729	-0.008053	-0.012802	0.999886	
3988														-0.069172	0.360956	9.787497	-0.620775	-0.783846	-0.014955	0.783949	-0.620824	-0.001691	-0.007959	-0.012773	0.999887	
3989														0.036759	0.443880	9.765373	-0.615998	-0.787605	-0.015008	0.787708	-0.616047	-0.001630	-0.007962	-0.012826	0.999886	
3990														0.024110	0.042023	9.808089	-0.611156	-0.791367	-0.015054	0.791471	-0.611204	-0.001677	-0.007874	-0.012940	0.999885	
3991														0.045181	-0.379887	9.808635	-0.606434	-0.794990	-0.015111	0.795095	-0.606483	-0.001617	-0.007879	-0.012995	0.999885	
3992														-0.002813	-0.413726	9.790585	-0.601879	-0.798447	-0.014980	0.798551	-0.601925	-0.001669	-0.007684	-0.012967	0.999886	
3993														0.015702	-0.073884	9.821932	-0.597189	-0.801960	-0.015016	0.802065	-0.597235	-0.001709	-0.007597	-0.013065	0.999886	
3994														0.067887	-0.127599	9.795815	-0.592802	-0.805206	-0.015118	0.805313	-0.592847	-0.001791	-0.007521	-0.013237	0.999884	
3995														0.226187	-0.243658	9.805823	-0.589100	-0.807919	-0.015111	0.808025	-0.589146	-0.001734	-0.007502	-0.013232	0.999884	
3996														0.188412	-0.116742	9.803789	-0.585865	-0.810267	-0.015141	0.810374	-0.585910	-0.001715	-0.007482	-0.013275	0.999884	
3997														0.125572	-0.074307	9.741043	-0.582686	-0.812558	-0.015036	0.812664	-0.582729	-0.001779	-0.007317	-0.013256	0.999885	
3998														0.118406	0.001057	9.814242	-0.579452	-0.814866	-0.015089	0.814974	-0.579495	-0.001786	-0.007289	-0.013332	0.999885	
3999														0.213882	-0.146818	9.805270	-0.576594	-0.816889	-0.015218	0.816997	-0.576639	-0.001739	-0.007354	-0.013435	0.999883	
4000														0.253506	-0.195778	9.763630	-0.574195	-0.818578	-0.015186	0.818687	-0.574238	-0.001764	-0.007277	-0.013446	0.999883	
4001														0.436336	-0.133877	9.834702	-0.573074	-0.819363	-0.015180	0.819471	-0.573118	-0.001699	-0.007308	-0.013413	0.999883	
4002														0.081312	-0.153259	9.767166	-0.572596	-0.819697	-0.015198	0.819805	-0.572640	-0.001728	-0.007286	-0.013449	0.999883	
4003														0.273474	-0.151625	9.779873	-0.571837	-0.820227	-0.015191	0.820335	-0.571881	-0.001692	-0.007300	-0.013429	0.999883	
4004														0.224465	-0.352315	9.834500	-0.571731	-0.820297	-0.015354	0.820407	-0.571777	-0.001634	-0.007439	-0.013530	0.999881	
4005														-0.015624	-0.390311	9.774470	-0.571831	-0.820227	-0.015370	0.820337	-0.571878	-0.001604	-0.007474	-0.013526	0.999881	
4006														-0.029420	-0.076194	9.760454	-0.571844	-0.820218	-0.015413	0.820326	-0.571894	-0.001313	-0.007738	-0.013395	0.999880	
4007														-0.022005	-0.154159	9.863610	-0.571383	-0.820526	-0.016045	0.820642	-0.571442	-0.001092	-0.008272	-0.013791	0.999871	
4008														0.490123	-0.228773	9.765659	-0.568377	-0.822610	-0.016152	0.822726	-0.568437	-0.001045	-0.008322	-0.013882	0.999869	
4009														-0.598164	0.073195	9.826269	-0.567939	-0.822909	-0.016323	0.823028	-0.567999	-0.001115	-0.008354	-0.014067	0.999866	
4010														-0.127587	-0.067799	9.798466	-0.567888	-0.822943	-0.016368	0.823063	-0.567949	-0.001089	-0.008401	-0.014090	0.999865	
4011														-0.067103	-0.060920	9.787916	-0.567791	-0.823011	-0.016349	0.823130	-0.567852	-0.001061	-0.008410	-0.014060	0.999866	
4012														-0.053718	-0.062297	9.803499	-0.567644	-0.823112	-0.016322	0.823231	-0.567705	-0.001066	-0.008388	-0.014042	0.999866	
4013														-0.065080	-0.030525	9.817578	-0.567347	-0.823318	-0.016285	0.823436	-0.567408	-0.001053	-0.008374	-0.014007	0.999867	
4014														-0.144253	0.026069	9.783192	-0.566280	-0.824051	-0.016313	0.824170	-0.566342	-0.000996	-0.008418	-0.014009	0.999866	
4015														-0.013877	-0.095392	9.791368	-0.564847	-0.825034	-0.016307	0.825153	-0.564908	-0.001030	-0.008362	-0.014038	0.999866	
4016														-0.127560	-0.050168	9.813299	-0.563226	-0.826142	-0.016303	0.826261	-0.563287	-0.001026	-0.008335	-0.014049	0.999867	
4017														-0.054455	-0.059236	9.803513	-0.561316	-0.827441	-0.016270	0.827559	-0.561378	-0.000941	-0.008355	-0.013993	0.999867	
4018														-0.034726	-0.031279	9.775665	-0.559533	-0.828648	-0.016316	0.828766	-0.559595	-0.000903	-0.008383	-0.014027	0.999866	
4019														-0.036590	-0.016332	9.819716	-0.557730	-0.829862	-0.016313	0.829980	-0.557793	-0.000798	-0.008437	-0.013984	0.999867	
4020														0.025927	-0.111742	9.794107	-0.556091	-0.830961	-0.016322	0.831078	-0.556155	-0.000726	-0.008474	-0.013968	0.999867	
4021														-0.045951	-0.087301	9.804081	-0.554841	-0.831797	-0.016296	0.831914	-0.554904	-0.000724	-0.008440	-0.013959	0.999867	
4022														-0.032292	-0.088650	9.819672	-0.553961	-0.832383	-0.016286	0.832500	-0.554025	-0.000747	-0.008401	-0.013972	0.999867	
4023														0.035867	-0.140658	9.809312	-0.553572	-0.832642	-0.016280	0.832759	-0.553636	-0.000738	-0.008399	-0.013965	0.999867	
4024														-0.067971	-0.023719	9.802956	-0.553642	-0.832596	-0.016258	0.832712	-0.553705	-0.000685	-0.008432	-0.013917	0.999868	
4025														-0.060344	-0.068366	9.817942	-0.553625	-0.832607	-0.016267	0.832723	-0.553689	-0.000637	-0.008477	-0.013898	0.999867	
4026														-0.057951	-0.053073	9.803529	-0.553677	-0.832573	-0.016256	0.832688	-0.553742	-0.000628	-0.008479	-0.013883	0.999868	
4027														-0.043890	-0.054345	9.804503	-0.553659	-0.832584	-0.016298	0.832700	-0.553724	-0.000586	-0.008536	-0.013896	0.999867	
4028														-0.044671	-0.054122	9.804501	-0.553723	-0.832540	-0.016376	0.832656	-0.553790	-0.000554	-0.008607	-0.013942	0.999866	
4029														-0.046088	-0.068439	9.789686	-0.553791	-0.832494	-0.016413	0.832611	-0.553858	-0.000548	-0.008634	-0.013970	0.999865	
4030														-0.059994	-0.066112	9.774096	-0.553791	-0.832494	-0.016412	0.832610	-0.553859	-0.000519	-0.008657	-0.013952	0.999865	
4031														-0.033245	-0.069173	9.805283	-0.553810	-0.832482	-0.016399	0.832598	-0.553877	-0.000509	-0.008659	-0.013936	0.999865	
4032														-0.047857	-0.066555	9.804311	-0.553779	-0.832503	-0.016352	0.832619	-0.553846	-0.000491	-0.008648	-0.013887	0.999866	
4033														-0.063456	-0.063899	9.817953	-0.553747	-0.832525	-0.016319	0.832640	-0.553815	-0.000469	-0.008647	-0.013848	0.999867	
4034														-0.063631	-0.063327	9.817955	-0.553731	-0.832535	-0.016343	0.832651	-0.553798	-0.000480	-0.008651	-0.013874	0.999866	
4035														-0.061653	-0.062553	9.788731	-0.553599	-0.832624	-0.016282	0.832739	-0.553666	-0.000478	-0.008617	-0.013823	0.999867	
4036														-0.048922	-0.078141	9.789523	-0.553600	-0.832624	-0.016288	0.832738	-0.553666	-0.000478	-0.008620	-0.013828	0.999867	
4037														-0.046551	-0.048568	9.804521	-0.553601	-0.832623	-0.016275	0.832737	-0.553668	-0.000468	-0.008621	-0.013811	0.999867	
4038														-0.062997	-0.060655	9.803355	-0.553569	-0.832645	-0.016260	0.832759	-0.553636	-0.000457	-0.008622	-0.013794	0.999868	
4039														-0.033163	-0.063575	9.790703	-0.553587	-0.832633	-0.016266	0.832747	-0.553653	-0.000458	-0.008625	-0.013799	0.999868	
4040														-0.048008	-0.061281	9.789725	-0.553586	-0.832633	-0.016279	0.832747	-0.553654	-0.000425	-0.008659	-0.013791	0.999867	
4041														-0.064839	-0.059011	9.817974	-0.553571	-0.832643	-0.016265	0.832757	-0.553639	-0.000414	-0.008661	-0.013774	0.999868	
4042														-0.065776	-0.072817	9.803177	-0.553590	-0.832631	-0.016252	0.832745	-0.553657	-0.000404	-0.008662	-0.013758	0.999868	
4043														-0.050734	-0.059600	9.818961	-0.553573	-0.832642	-0.016272	0.832756	-0.553640	-0.000400	-0.008676	-0.013772	0.999868	
4044														-0.050839	-0.073488	9.789550	-0.553573	-0.832642	-0.016269	0.832755	-0.553642	-0.000370	-0.008699	-0.013754	0.999868	
4045														-0.064914	-0.056613	9.803367	-0.553557	-0.832652	-0.016270	0.832766	-0.553626	-0.000356	-0.008711	-0.013746	0.999868	
4046														-0.052285	-0.072307	9.804171	-0.553559	-0.832651	-0.016246	0.832764	-0.553628	-0.000364	-0.008691	-0.013730	0.999868	
4047														-0.050751	-0.057143	9.804356	-0.553542	-0.832662	-0.016257	0.832775	-0.553611	-0.000330	-0.008725	-0.013722	0.999868	
4048														-0.053789	-0.071173	9.818791	-0.553544	-0.832661	-0.016248	0.832774	-0.553612	-0.000335	-0.008716	-0.013716	0.999868	
4049														-0.068174	-0.083220	9.788402	-0.553562	-0.832649	-0.016235	0.832762	-0.553631	-0.000325	-0.008718	-0.013699	0.999868	
4050														-0.050225	-0.055343	9.789749	-0.553547	-0.832660	-0.016228	0.832772	-0.553615	-0.000343	-0.008699	-0.013704	0.999868	
4051														-0.039695	-0.071145	9.819787	-0.553565	-0.832648	-0.016222	0.832760	-0.553633	-0.000300	-0.008732	-0.013675	0.999868	
4052														-0.067932	-0.066840	9.803205	-0.553550	-0.832658	-0.016197	0.832770	-0.553618	-0.000307	-0.008711	-0.013659	0.999869	
4053														-0.059620	-0.063592	9.792784	-0.553551	-0.832658	-0.016203	0.832770	-0.553620	-0.000294	-0.008726	-0.013656	0.999869	
4054														-0.051307	-0.060344	9.782363	-0.553552	-0.832657	-0.016210	0.832769	-0.553621	-0.000280	-0.008741	-0.013654	0.999869	
4055														-0.053160	-0.066839	9.789585	-0.553551	-0.832657	-0.016214	0.832769	-0.553621	-0.000260	-0.008760	-0.013647	0.999869	
4056														-0.054387	-0.066277	9.804202	-0.553571	-0.832645	-0.016186	0.832756	-0.553640	-0.000254	-0.008750	-0.013620	0.999869	
4057														-0.055502	-0.065612	9.818820	-0.553555	-0.832655	-0.016172	0.832767	-0.553624	-0.000243	-0.008751	-0.013602	0.999869	
4058														-0.052924	-0.050341	9.804381	-0.553540	-0.832666	-0.016157	0.832777	-0.553609	-0.000232	-0.008752	-0.013584	0.999869	
4059														-0.070574	-0.062711	9.817835	-0.553538	-0.832666	-0.016202	0.832777	-0.553608	-0.000206	-0.008798	-0.013607	0.999869	
4060														-0.053775	-0.049551	9.804381	-0.553538	-0.832666	-0.016221	0.832777	-0.553608	-0.000202	-0.008812	-0.013621	0.999868	
4061														-0.039281	-0.065166	9.775975	-0.553506	-0.832688	-0.016202	0.832799	-0.553576	-0.000176	-0.008823	-0.013591	0.999869	
4062														-0.042567	-0.064637	9.819820	-0.553523	-0.832676	-0.016203	0.832787	-0.553594	-0.000162	-0.008835	-0.013584	0.999869	
4063														-0.071543	-0.074974	9.788444	-0.553525	-0.832675	-0.016189	0.832786	-0.553595	-0.000151	-0.008836	-0.013566	0.999869	
4064														-0.070030	-0.059810	9.788615	-0.553509	-0.832686	-0.016189	0.832796	-0.553579	-0.000136	-0.008848	-0.013558	0.999869	
4065														-0.042239	-0.062720	9.805215	-0.553493	-0.832697	-0.016174	0.832807	-0.553564	-0.000125	-0.008849	-0.013539	0.999869	
4066														-0.072060	-0.073177	9.788454	-0.553512	-0.832685	-0.016168	0.832795	-0.553582	-0.000145	-0.008830	-0.013545	0.999869	
4067														-0.057002	-0.059962	9.804228	-0.553495	-0.832696	-0.016183	0.832806	-0.553565	-0.000126	-0.008853	-0.013546	0.999869	
4068														-0.040147	-0.046638	9.790772	-0.553494	-0.832695	-0.016198	0.832806	-0.553566	-0.000107	-0.008877	-0.013549	0.999869	
4069														-0.043222	-0.060704	9.805224	-0.553478	-0.832706	-0.016197	0.832816	-0.553550	-0.000092	-0.008889	-0.013540	0.999869	
4070														-0.059850	-0.072933	9.804068	-0.553478	-0.832706	-0.016208	0.832816	-0.553550	-0.000059	-0.008923	-0.013531	0.999869	
4071														-0.046727	-0.074032	9.819680	-0.553496	-0.832694	-0.016190	0.832804	-0.553569	-0.000034	-0.008934	-0.013502	0.999869	
4072														-0.058379	-0.071402	9.774848	-0.553516	-0.832682	-0.016161	0.832791	-0.553588	-0.000028	-0.008924	-0.013474	0.999869	
4073														-0.075019	-0.069034	9.803084	-0.553500	-0.832693	-0.016146	0.832801	-0.553572	-0.000017	-0.008924	-0.013456	0.999870	
4074														-0.060683	-0.070201	9.804083	-0.553501	-0.832692	-0.016150	0.832801	-0.553573	-0.000017	-0.008926	-0.013459	0.999870	
4075														-0.060411	-0.069676	9.796778	-0.553510	-0.832686	-0.016143	0.832794	-0.553583	0.000017	-0.008950	-0.013434	0.999870	
4076														-0.060139	-0.069150	9.789474	-0.553520	-0.832680	-0.016136	0.832788	-0.553593	0.000050	-0.008974	-0.013410	0.999870	
4077														-0.059943	-0.053577	9.804247	-0.553537	-0.832668	-0.016124	0.832776	-0.553610	0.000066	-0.008982	-0.013391	0.999870	
4078														-0.063063	-0.067589	9.818707	-0.553554	-0.832657	-0.016136	0.832764	-0.553628	0.000099	-0.009016	-0.013382	0.999870	
4079														-0.062243	-0.081447	9.774713	-0.553537	-0.832668	-0.016146	0.832775	-0.553611	0.000133	-0.009049	-0.013372	0.999870	
4080														-0.046590	-0.053475	9.805250	-0.553556	-0.832656	-0.016117	0.832763	-0.553630	0.000139	-0.009038	-0.013344	0.999870	
4081														-0.064057	-0.065705	9.818713	-0.553505	-0.832690	-0.016129	0.832796	-0.553579	0.000159	-0.009061	-0.013344	0.999870	
4082														-0.063331	-0.065200	9.804101	-0.553506	-0.832689	-0.016133	0.832796	-0.553580	0.000159	-0.009063	-0.013347	0.999870	
4083														-0.059873	-0.050022	9.775027	-0.553524	-0.832677	-0.016129	0.832784	-0.553598	0.000188	-0.009085	-0.013328	0.999870	
4084														-0.064908	-0.064098	9.818718	-0.553524	-0.832677	-0.016133	0.832783	-0.553599	0.000188	-0.009087	-0.013331	0.999870	
4085														-0.048495	-0.065248	9.790497	-0.553526	-0.832676	-0.016121	0.832783	-0.553600	0.000184	-0.009078	-0.013324	0.999870	
4086														-0.064247	-0.062941	9.804110	-0.553526	-0.832676	-0.016117	0.832782	-0.553601	0.000213	-0.009100	-0.013304	0.999870	
4087														-0.062713	-0.047831	9.804260	-0.553528	-0.832675	-0.016109	0.832781	-0.553602	0.000194	-0.009080	-0.013308	0.999870	
4088														-0.050842	-0.078202	9.790357	-0.553510	-0.832686	-0.016138	0.832793	-0.553585	0.000217	-0.009114	-0.013319	0.999870	
4089														-0.064306	-0.046928	9.818874	-0.553528	-0.832674	-0.016123	0.832780	-0.553603	0.000227	-0.009115	-0.013301	0.999870	
4090														-0.051665	-0.062417	9.819736	-0.553531	-0.832673	-0.016089	0.832779	-0.553606	0.000249	-0.009114	-0.013261	0.999871	
4091														-0.036461	-0.063366	9.806132	-0.553513	-0.832685	-0.016098	0.832790	-0.553589	0.000283	-0.009147	-0.013250	0.999870	
4092														-0.064858	-0.059341	9.789508	-0.553514	-0.832684	-0.016097	0.832790	-0.553590	0.000297	-0.009159	-0.013241	0.999870	
4093														-0.035838	-0.076739	9.762154	-0.553514	-0.832684	-0.016111	0.832789	-0.553590	0.000316	-0.009182	-0.013242	0.999870	
4094														-0.055885	-0.074730	9.834213	-0.553513	-0.832684	-0.016140	0.832790	-0.553590	0.000338	-0.009217	-0.013254	0.999870	
4095														-0.069037	-0.057956	9.833348	-0.553531	-0.832672	-0.016125	0.832777	-0.553608	0.000349	-0.009217	-0.013236	0.999870	
4096														-0.036163	-0.060657	9.776916	-0.553515	-0.832683	-0.016123	0.832788	-0.553592	0.000364	-0.009229	-0.013226	0.999870	
4097														-0.053623	-0.073001	9.790382	-0.553482	-0.832705	-0.016125	0.832810	-0.553559	0.000364	-0.009230	-0.013228	0.999870	
4098														-0.067733	-0.056093	9.804128	-0.553500	-0.832694	-0.016103	0.832798	-0.553577	0.000404	-0.009250	-0.013187	0.999870	
4099														-0.081616	-0.053798	9.788505	-0.553482	-0.832705	-0.016134	0.832809	-0.553560	0.000412	-0.009274	-0.013208	0.999870	
4100														-0.038416	-0.058481	9.791537	-0.553483	-0.832704	-0.016133	0.832809	-0.553560	0.000426	-0.009285	-0.013199	0.999870	
4101														-0.038754	-0.057963	9.791539	-0.553500	-0.832693	-0.016147	0.832797	-0.553578	0.000445	-0.009309	-0.013201	0.999870	
4102														-0.069248	-0.054063	9.804129	-0.553499	-0.832693	-0.016156	0.832797	-0.553578	0.000478	-0.009342	-0.013191	0.999869	
4103														-0.029941	-0.042375	9.674774	-0.553514	-0.832682	-0.016215	0.832787	-0.553593	0.000508	-0.009399	-0.013223	0.999868	
4104														-0.050070	-0.086312	9.878941	-0.553527	-0.832672	-0.016310	0.832778	-0.553608	0.000516	-0.009459	-0.013297	0.999867	
4105														-0.120096	-0.064790	10.064982	-0.553531	-0.832670	-0.016246	0.832775	-0.553611	0.000530	-0.009435	-0.013236	0.999868	
4106														-0.052249	-0.022806	9.585204	-0.553534	-0.832669	-0.016174	0.832773	-0.553614	0.000573	-0.009431	-0.013152	0.999869	
4107														0.045106	-0.079710	9.782896	-0.553496	-0.832693	-0.016272	0.832798	-0.553577	0.000568	-0.009481	-0.013237	0.999867	
4108														-0.007927	-0.089220	9.882004	-0.553512	-0.832682	-0.016296	0.832787	-0.553594	0.000605	-0.009525	-0.013237	0.999867	
4109														-0.157176	-0.055487	9.739432	-0.553512	-0.832681	-0.016310	0.832786	-0.553594	0.000623	-0.009547	-0.013238	0.999867	
4110														-0.064295	-0.067156	9.863455	-0.553527	-0.832671	-0.016372	0.832776	-0.553609	0.000638	-0.009595	-0.013281	0.999866	
4111														0.043020	-0.078569	9.782915	-0.553527	-0.832670	-0.016370	0.832776	-0.553610	0.000652	-0.009606	-0.013272	0.999866	
4112														-0.098572	-0.046569	9.743629	-0.553529	-0.832669	-0.016358	0.832775	-0.553612	0.000648	-0.009596	-0.013263	0.999866	
4113														-0.107522	-0.075317	9.816428	-0.553526	-0.832670	-0.016411	0.832776	-0.553610	0.000693	-0.009663	-0.013283	0.999865	
4114														-0.049304	-0.066929	9.835254	-0.553528	-0.832669	-0.016376	0.832774	-0.553612	0.000715	-0.009661	-0.013242	0.999866	
4115														-0.029212	-0.053287	9.777959	-0.553512	-0.832680	-0.016374	0.832785	-0.553596	0.000730	-0.009672	-0.013232	0.999866	
4116														-0.063999	-0.078634	9.804884	-0.553528	-0.832669	-0.016406	0.832774	-0.553613	0.000738	-0.009697	-0.013254	0.999865	
4117														-0.065323	-0.078288	9.819497	-0.553529	-0.832669	-0.016407	0.832774	-0.553613	0.000737	-0.009697	-0.013256	0.999865	
4118														-0.044154	-0.064805	9.747590	-0.553513	-0.832679	-0.016390	0.832784	-0.553597	0.000748	-0.009697	-0.013235	0.999865	
4119														-0.050230	-0.078817	9.805915	-0.553513	-0.832679	-0.016404	0.832784	-0.553598	0.000767	-0.009720	-0.013236	0.999865	
4120														-0.093365	-0.058628	9.817583	-0.553532	-0.832667	-0.016373	0.832771	-0.553617	0.000773	-0.009708	-0.013207	0.999866	
4121														-0.077931	-0.059574	9.803999	-0.553482	-0.832700	-0.016354	0.832804	-0.553567	0.000785	-0.009707	-0.013185	0.999866	
4122														-0.060494	-0.060667	9.761189	-0.553517	-0.832677	-0.016358	0.832781	-0.553602	0.000784	-0.009709	-0.013188	0.999866	
4123														-0.046601	-0.047180	9.791563	-0.553501	-0.832688	-0.016336	0.832792	-0.553586	0.000810	-0.009718	-0.013157	0.999866	
4124														-0.052387	-0.075716	9.820546	-0.553517	-0.832677	-0.016364	0.832781	-0.553602	0.000832	-0.009752	-0.013168	0.999866	
4125														-0.050244	-0.060736	9.806054	-0.553516	-0.832677	-0.016388	0.832781	-0.553602	0.000869	-0.009796	-0.013167	0.999865	
4126														-0.053385	-0.074761	9.820548	-0.553500	-0.832688	-0.016386	0.832791	-0.553586	0.000884	-0.009807	-0.013156	0.999865	
4127														-0.067104	-0.072681	9.804909	-0.553500	-0.832688	-0.016406	0.832791	-0.553586	0.000874	-0.009809	-0.013179	0.999865	
4128														-0.062574	-0.057714	9.761194	-0.553484	-0.832699	-0.016403	0.832802	-0.553570	0.000889	-0.009820	-0.013169	0.999865	
4129														-0.058111	-0.065342	9.787222	-0.553468	-0.832709	-0.016392	0.832813	-0.553554	0.000899	-0.009822	-0.013154	0.999865	
4130														-0.053649	-0.072971	9.813251	-0.553452	-0.832720	-0.016381	0.832823	-0.553539	0.000908	-0.009824	-0.013140	0.999865	
4131														-0.051423	-0.072066	9.776726	-0.553469	-0.832709	-0.016380	0.832812	-0.553556	0.000929	-0.009841	-0.013128	0.999865	
4132														-0.052852	-0.071597	9.791339	-0.553469	-0.832708	-0.016393	0.832811	-0.553556	0.000948	-0.009864	-0.013128	0.999865	
4133														-0.069832	-0.069358	9.819533	-0.553470	-0.832708	-0.016386	0.832810	-0.553557	0.000978	-0.009885	-0.013105	0.999865	
4134														-0.082922	-0.052527	9.818618	-0.553471	-0.832707	-0.016374	0.832810	-0.553559	0.000973	-0.009874	-0.013098	0.999865	
4135														-0.067593	-0.053566	9.805040	-0.553455	-0.832718	-0.016367	0.832820	-0.553543	0.001003	-0.009896	-0.013076	0.999866	
4136														-0.053908	-0.069056	9.791352	-0.553474	-0.832706	-0.016335	0.832808	-0.553562	0.001010	-0.009884	-0.013045	0.999866	
4137														-0.054021	-0.068338	9.791356	-0.553459	-0.832717	-0.016317	0.832818	-0.553546	0.001021	-0.009882	-0.013023	0.999866	
4138														-0.068212	-0.051554	9.805047	-0.553476	-0.832705	-0.016331	0.832806	-0.553564	0.001040	-0.009906	-0.013025	0.999866	
4139														-0.042808	-0.083447	9.806897	-0.553460	-0.832716	-0.016328	0.832817	-0.553547	0.001055	-0.009917	-0.013014	0.999866	
4140														-0.040296	-0.068332	9.792397	-0.553461	-0.832715	-0.016314	0.832816	-0.553549	0.001051	-0.009906	-0.013005	0.999866	
4141														-0.054055	-0.066120	9.776754	-0.553443	-0.832727	-0.016320	0.832828	-0.553532	0.001085	-0.009937	-0.012992	0.999866	
4142														-0.073285	-0.063901	9.834164	-0.553458	-0.832716	-0.016344	0.832817	-0.553547	0.001120	-0.009980	-0.012992	0.999866	
4143														-0.042059	-0.052068	9.821732	-0.553460	-0.832716	-0.016338	0.832816	-0.553549	0.001151	-0.010002	-0.012970	0.999866	
4144														-0.040907	-0.066035	9.777795	-0.553477	-0.832704	-0.016336	0.832804	-0.553567	0.001165	-0.010013	-0.012960	0.999866	
4145														-0.042679	-0.080192	9.777693	-0.553478	-0.832703	-0.016345	0.832804	-0.553568	0.001135	-0.009993	-0.012984	0.999866	
4146														-0.086484	-0.045746	9.818621	-0.553460	-0.832715	-0.016379	0.832815	-0.553550	0.001191	-0.010058	-0.012981	0.999865	
4147														-0.087516	-0.059680	9.803906	-0.553445	-0.832725	-0.016346	0.832825	-0.553535	0.001199	-0.010046	-0.012949	0.999866	
4148														-0.058648	-0.062292	9.805987	-0.553462	-0.832714	-0.016343	0.832814	-0.553552	0.001213	-0.010057	-0.012940	0.999866	
4149														-0.063245	-0.090820	9.820397	-0.553446	-0.832725	-0.016340	0.832824	-0.553536	0.001228	-0.010067	-0.012929	0.999866	
4150														-0.072847	-0.059570	9.790338	-0.553429	-0.832736	-0.016363	0.832835	-0.553520	0.001266	-0.010111	-0.012927	0.999865	
4151														-0.045352	-0.062346	9.807031	-0.553429	-0.832736	-0.016375	0.832835	-0.553520	0.001284	-0.010133	-0.012927	0.999865	
4152														-0.061735	-0.074754	9.805892	-0.553429	-0.832736	-0.016361	0.832835	-0.553520	0.001279	-0.010122	-0.012918	0.999865	
4153														-0.047328	-0.075668	9.806939	-0.553431	-0.832735	-0.016325	0.832834	-0.553522	0.001301	-0.010119	-0.012876	0.999866	
4154														-0.060607	-0.058905	9.805996	-0.553445	-0.832725	-0.016367	0.832823	-0.553537	0.001326	-0.010164	-0.012897	0.999865	
4155														-0.046536	-0.060112	9.807039	-0.553413	-0.832746	-0.016362	0.832845	-0.553505	0.001342	-0.010174	-0.012885	0.999865	
4156														-0.047383	-0.073903	9.792336	-0.553414	-0.832746	-0.016322	0.832844	-0.553506	0.001378	-0.010182	-0.012831	0.999866	
4157														-0.062595	-0.056948	9.820613	-0.553415	-0.832746	-0.016323	0.832844	-0.553507	0.001378	-0.010182	-0.012832	0.999866	
4158														-0.063402	-0.071011	9.805909	-0.553398	-0.832757	-0.016320	0.832855	-0.553490	0.001392	-0.010192	-0.012821	0.999866	
4159														-0.075476	-0.054233	9.790349	-0.553417	-0.832745	-0.016303	0.832842	-0.553509	0.001403	-0.010192	-0.012802	0.999866	
4160														-0.076380	-0.068195	9.775647	-0.553417	-0.832745	-0.016311	0.832842	-0.553509	0.001436	-0.010224	-0.012790	0.999866	
4161														-0.047210	-0.056330	9.792443	-0.553399	-0.832756	-0.016321	0.832853	-0.553492	0.001455	-0.010245	-0.012788	0.999866	
4162														-0.079303	-0.066939	9.804870	-0.553417	-0.832745	-0.016296	0.832841	-0.553510	0.001494	-0.010264	-0.012745	0.999866	
4163														-0.078478	-0.066348	9.790262	-0.553400	-0.832756	-0.016299	0.832853	-0.553493	0.001479	-0.010253	-0.012756	0.999866	
4164														-0.065189	-0.067480	9.805922	-0.553401	-0.832755	-0.016296	0.832851	-0.553495	0.001494	-0.010264	-0.012746	0.999866	
4165														-0.062748	-0.052330	9.791403	-0.553403	-0.832755	-0.016279	0.832851	-0.553496	0.001505	-0.010263	-0.012726	0.999866	
4166														-0.063079	-0.051700	9.791404	-0.553369	-0.832777	-0.016285	0.832873	-0.553463	0.001539	-0.010295	-0.012712	0.999866	
4167														-0.051560	-0.067319	9.806978	-0.553369	-0.832777	-0.016285	0.832873	-0.553462	0.001539	-0.010294	-0.012712	0.999866	
4168														-0.052344	-0.081289	9.792285	-0.553369	-0.832777	-0.016262	0.832872	-0.553463	0.001564	-0.010303	-0.012679	0.999867	
4169														-0.049793	-0.066042	9.777765	-0.553370	-0.832777	-0.016233	0.832872	-0.553464	0.001555	-0.010279	-0.012659	0.999867	
4170														-0.052289	-0.065405	9.806987	-0.553386	-0.832766	-0.016267	0.832861	-0.553480	0.001610	-0.010345	-0.012657	0.999866	
4171														-0.063593	-0.048828	9.776798	-0.553385	-0.832767	-0.016268	0.832861	-0.553479	0.001609	-0.010344	-0.012659	0.999866	
4172														-0.053578	-0.079116	9.792296	-0.553384	-0.832767	-0.016281	0.832862	-0.553478	0.001613	-0.010354	-0.012668	0.999866	
4173														-0.067330	-0.077079	9.776635	-0.553386	-0.832766	-0.016279	0.832861	-0.553481	0.001628	-0.010366	-0.012657	0.999866	
4174														-0.067007	-0.061870	9.791330	-0.553403	-0.832755	-0.016261	0.832849	-0.553498	0.001637	-0.010364	-0.012637	0.999866	
4175														-0.067345	-0.061354	9.791331	-0.553404	-0.832754	-0.016288	0.832848	-0.553499	0.001660	-0.010398	-0.012646	0.999866	
4176														-0.042949	-0.093071	9.807892	-0.553404	-0.832754	-0.016265	0.832848	-0.553499	0.001685	-0.010406	-0.012613	0.999866	
4177														-0.054389	-0.061736	9.807000	-0.553420	-0.832743	-0.016255	0.832837	-0.553515	0.001665	-0.010384	-0.012616	0.999867	
4178														-0.067936	-0.059825	9.791336	-0.553405	-0.832753	-0.016274	0.832847	-0.553500	0.001655	-0.010385	-0.012638	0.999866	
4179														-0.055760	-0.060832	9.821614	-0.553407	-0.832752	-0.016252	0.832846	-0.553503	0.001680	-0.010395	-0.012606	0.999867	
4180														-0.056627	-0.074703	9.806930	-0.553424	-0.832741	-0.016245	0.832834	-0.553520	0.001709	-0.010415	-0.012583	0.999867	
4181														-0.071425	-0.072430	9.805877	-0.553412	-0.832750	-0.016227	0.832842	-0.553507	0.001721	-0.010415	-0.012562	0.999867	
4182														-0.037296	-0.045961	9.778923	-0.553413	-0.832749	-0.016224	0.832842	-0.553509	0.001735	-0.010425	-0.012552	0.999867	
4183														-0.054761	-0.058421	9.792402	-0.553410	-0.832751	-0.016238	0.832843	-0.553506	0.001738	-0.010435	-0.012562	0.999867	
4184														-0.058979	-0.061318	9.792120	-0.553420	-0.832744	-0.016244	0.832837	-0.553515	0.001744	-0.010444	-0.012564	0.999867	
4185														-0.063198	-0.064215	9.791839	-0.553429	-0.832738	-0.016251	0.832831	-0.553525	0.001750	-0.010452	-0.012566	0.999866	
4186														-0.087155	-0.068217	9.804828	-0.553416	-0.832747	-0.016216	0.832839	-0.553512	0.001764	-0.010445	-0.012529	0.999867	
4187														-0.056750	-0.056318	9.807019	-0.553401	-0.832757	-0.016232	0.832850	-0.553497	0.001768	-0.010456	-0.012540	0.999867	
4188														-0.061330	-0.084979	9.821489	-0.553399	-0.832758	-0.016244	0.832850	-0.553495	0.001785	-0.010478	-0.012541	0.999866	
4189														-0.068769	-0.053930	9.762130	-0.553398	-0.832759	-0.016239	0.832851	-0.553494	0.001799	-0.010486	-0.012529	0.999867	
4190														-0.059354	-0.069419	9.806952	-0.553377	-0.832772	-0.016248	0.832865	-0.553474	0.001817	-0.010506	-0.012528	0.999866	
4191														-0.043582	-0.055912	9.808084	-0.553345	-0.832794	-0.016244	0.832886	-0.553441	0.001832	-0.010516	-0.012516	0.999866	
4192														-0.061554	-0.082886	9.806889	-0.553393	-0.832762	-0.016241	0.832854	-0.553490	0.001844	-0.010525	-0.012506	0.999866	
4193														-0.061263	-0.067661	9.821569	-0.553378	-0.832773	-0.016223	0.832864	-0.553475	0.001855	-0.010523	-0.012485	0.999867	
4194														-0.074905	-0.065670	9.805898	-0.553395	-0.832761	-0.016244	0.832853	-0.553492	0.001842	-0.010525	-0.012509	0.999866	
4195														-0.059554	-0.066893	9.792353	-0.553377	-0.832773	-0.016238	0.832865	-0.553474	0.001857	-0.010534	-0.012497	0.999866	
4196														-0.060453	-0.080929	9.777681	-0.553377	-0.832773	-0.016246	0.832864	-0.553474	0.001890	-0.010565	-0.012485	0.999866	
4197														-0.062407	-0.065690	9.821575	-0.553361	-0.832783	-0.016245	0.832875	-0.553458	0.001890	-0.010565	-0.012484	0.999866	
4198														-0.061063	-0.050605	9.821640	-0.553347	-0.832792	-0.016241	0.832883	-0.553445	0.001905	-0.010575	-0.012472	0.999866	
4199														-0.059560	-0.064713	9.777752	-0.553368	-0.832779	-0.016212	0.832870	-0.553465	0.001897	-0.010552	-0.012453	0.999867	
4200														-0.046889	-0.050946	9.822710	-0.553367	-0.832780	-0.016219	0.832870	-0.553465	0.001930	-0.010583	-0.012440	0.999867	
4201														-0.048247	-0.079866	9.793370	-0.553334	-0.832801	-0.016254	0.832893	-0.553431	0.001909	-0.010585	-0.012482	0.999866	
4202														-0.062560	-0.063318	9.806974	-0.553370	-0.832777	-0.016249	0.832868	-0.553468	0.001937	-0.010606	-0.012461	0.999866	
4203														-0.062943	-0.062636	9.806976	-0.553337	-0.832799	-0.016240	0.832890	-0.553435	0.001967	-0.010626	-0.012438	0.999866	
4204														-0.063230	-0.062169	9.806977	-0.553355	-0.832787	-0.016260	0.832878	-0.553453	0.001955	-0.010627	-0.012460	0.999866	
4205														-0.035874	-0.079365	9.809058	-0.553373	-0.832775	-0.016226	0.832866	-0.553471	0.001961	-0.010614	-0.012428	0.999866	
4206														-0.047389	-0.048061	9.808108	-0.553389	-0.832765	-0.016227	0.832855	-0.553487	0.001959	-0.010613	-0.012431	0.999866	
4207														-0.052142	-0.058233	9.804147	-0.553380	-0.832771	-0.016238	0.832861	-0.553478	0.001974	-0.010632	-0.012431	0.999866	
4208														-0.056894	-0.068405	9.800186	-0.553370	-0.832777	-0.016249	0.832867	-0.553469	0.001989	-0.010650	-0.012432	0.999866	
4209														-0.063374	-0.059616	9.792376	-0.553385	-0.832767	-0.016245	0.832858	-0.553484	0.002008	-0.010663	-0.012418	0.999866	
4210														-0.079645	-0.072168	9.791252	-0.553405	-0.832754	-0.016234	0.832844	-0.553504	0.001989	-0.010642	-0.012420	0.999866	
4211														-0.048613	-0.045538	9.808114	-0.553375	-0.832774	-0.016214	0.832864	-0.553474	0.002000	-0.010640	-0.012398	0.999867	
4212														-0.050825	-0.073948	9.793403	-0.553375	-0.832775	-0.016176	0.832864	-0.553473	0.002021	-0.010636	-0.012354	0.999867	
4213														-0.053729	-0.087775	9.807965	-0.553372	-0.832777	-0.016188	0.832866	-0.553470	0.002038	-0.010656	-0.012354	0.999867	
4214														-0.065472	-0.056459	9.806997	-0.553357	-0.832787	-0.016164	0.832876	-0.553456	0.002064	-0.010665	-0.012321	0.999867	
4215														-0.065804	-0.055831	9.806998	-0.553356	-0.832788	-0.016176	0.832877	-0.553455	0.002081	-0.010686	-0.012321	0.999867	
4216														-0.067701	-0.069983	9.806949	-0.553353	-0.832789	-0.016190	0.832878	-0.553453	0.002084	-0.010695	-0.012331	0.999867	
4217														-0.066954	-0.069319	9.792343	-0.553355	-0.832789	-0.016144	0.832876	-0.553455	0.002135	-0.010713	-0.012265	0.999867	
4218														-0.068409	-0.068572	9.806954	-0.553355	-0.832788	-0.016174	0.832876	-0.553455	0.002141	-0.010735	-0.012286	0.999867	
4219														-0.052021	-0.069793	9.778813	-0.553352	-0.832791	-0.016155	0.832878	-0.553452	0.002150	-0.010732	-0.012265	0.999867	
4220														-0.052184	-0.069016	9.778818	-0.553338	-0.832801	-0.016117	0.832888	-0.553438	0.002172	-0.010729	-0.012222	0.999868	
4221														-0.055685	-0.068133	9.822648	-0.553357	-0.832788	-0.016130	0.832874	-0.553458	0.002190	-0.010751	-0.012223	0.999868	
4222														-0.070859	-0.080659	9.806921	-0.553346	-0.832796	-0.016100	0.832883	-0.553445	0.002182	-0.010728	-0.012202	0.999868	
4223														-0.070397	-0.065305	9.821578	-0.553341	-0.832800	-0.016065	0.832886	-0.553440	0.002187	-0.010712	-0.012170	0.999869	
4224														-0.053888	-0.066319	9.793441	-0.553328	-0.832809	-0.016061	0.832895	-0.553427	0.002202	-0.010723	-0.012159	0.999869	
4225														-0.068642	-0.064158	9.792367	-0.553350	-0.832794	-0.016044	0.832880	-0.553449	0.002212	-0.010722	-0.012138	0.999869	
4226														-0.056339	-0.065000	9.822665	-0.553363	-0.832786	-0.016033	0.832872	-0.553462	0.002191	-0.010698	-0.012141	0.999869	
4227														-0.025253	-0.067616	9.795608	-0.553364	-0.832785	-0.016011	0.832870	-0.553464	0.002216	-0.010707	-0.012109	0.999869	
4228														-0.070589	-0.076733	9.792339	-0.553350	-0.832795	-0.015973	0.832880	-0.553449	0.002237	-0.010703	-0.012066	0.999870	
4229														-0.054797	-0.063023	9.793458	-0.553329	-0.832809	-0.015982	0.832894	-0.553428	0.002255	-0.010722	-0.012063	0.999870	
4230														-0.059178	-0.091563	9.807997	-0.553330	-0.832809	-0.015966	0.832893	-0.553429	0.002250	-0.010710	-0.012053	0.999870	
4231														-0.056850	-0.076609	9.793426	-0.553330	-0.832808	-0.015991	0.832893	-0.553430	0.002272	-0.010742	-0.012062	0.999870	
4232														-0.057125	-0.075935	9.793430	-0.553331	-0.832809	-0.015939	0.832893	-0.553430	0.002288	-0.010727	-0.012009	0.999870	
4233														-0.039645	-0.047611	9.794582	-0.553330	-0.832810	-0.015938	0.832893	-0.553429	0.002287	-0.010725	-0.012009	0.999870	
4234														-0.069447	-0.058834	9.777779	-0.553291	-0.832835	-0.015964	0.832919	-0.553390	0.002294	-0.010745	-0.012027	0.999870	
4235														-0.059337	-0.088841	9.793407	-0.553274	-0.832847	-0.015925	0.832930	-0.553374	0.002316	-0.010741	-0.011983	0.999871	
4236														-0.059106	-0.073462	9.808051	-0.553277	-0.832845	-0.015921	0.832928	-0.553377	0.002330	-0.010750	-0.011972	0.999871	
4237														-0.026592	-0.061597	9.781033	-0.553279	-0.832844	-0.015920	0.832927	-0.553379	0.002329	-0.010749	-0.011971	0.999871	
4238														-0.060648	-0.072347	9.822664	-0.553269	-0.832851	-0.015916	0.832933	-0.553368	0.002344	-0.010760	-0.011960	0.999871	
4239														-0.072851	-0.055763	9.807003	-0.553246	-0.832866	-0.015911	0.832948	-0.553346	0.002357	-0.010767	-0.011949	0.999871	
4240														-0.087998	-0.068330	9.791285	-0.553250	-0.832864	-0.015898	0.832946	-0.553349	0.002352	-0.010756	-0.011941	0.999871	
4241														-0.043121	-0.057813	9.794567	-0.553263	-0.832854	-0.015911	0.832937	-0.553363	0.002368	-0.010776	-0.011943	0.999871	
4242														-0.072907	-0.068969	9.777764	-0.553266	-0.832853	-0.015910	0.832935	-0.553365	0.002367	-0.010775	-0.011943	0.999871	
4243														-0.043746	-0.056824	9.794571	-0.553228	-0.832878	-0.015916	0.832960	-0.553328	0.002399	-0.010805	-0.011930	0.999870	
4244														-0.075843	-0.067639	9.806983	-0.553246	-0.832866	-0.015908	0.832948	-0.553347	0.002427	-0.010824	-0.011907	0.999871	
4245														-0.075091	-0.067103	9.792376	-0.553229	-0.832878	-0.015903	0.832959	-0.553329	0.002441	-0.010833	-0.011896	0.999871	
4246														-0.058674	-0.068226	9.764250	-0.553231	-0.832876	-0.015898	0.832957	-0.553332	0.002455	-0.010842	-0.011884	0.999871	
4247														-0.048709	-0.068761	9.823772	-0.553254	-0.832861	-0.015882	0.832942	-0.553355	0.002465	-0.010841	-0.011865	0.999871	
4248														-0.062380	-0.066720	9.808079	-0.553239	-0.832871	-0.015877	0.832952	-0.553340	0.002479	-0.010850	-0.011854	0.999871	
4249														-0.077143	-0.064699	9.806992	-0.553273	-0.832849	-0.015878	0.832929	-0.553374	0.002477	-0.010849	-0.011855	0.999871	
4250														-0.061820	-0.065943	9.793474	-0.553237	-0.832872	-0.015905	0.832953	-0.553339	0.002484	-0.010870	-0.011874	0.999870	
4251														-0.061071	-0.065517	9.778867	-0.553277	-0.832846	-0.015884	0.832927	-0.553378	0.002509	-0.010879	-0.011842	0.999871	
4252														-0.046762	-0.066303	9.779961	-0.553258	-0.832859	-0.015864	0.832939	-0.553359	0.002518	-0.010876	-0.011820	0.999871	
4253														-0.075626	-0.048005	9.792408	-0.553251	-0.832863	-0.015860	0.832943	-0.553352	0.002530	-0.010884	-0.011811	0.999871	
4254														-0.062361	-0.048851	9.808108	-0.553254	-0.832862	-0.015846	0.832942	-0.553355	0.002525	-0.010871	-0.011802	0.999871	
4255														-0.033841	-0.065909	9.795670	-0.553259	-0.832859	-0.015828	0.832939	-0.553360	0.002535	-0.010870	-0.011782	0.999872	
4256														-0.079268	-0.075350	9.792382	-0.553252	-0.832863	-0.015834	0.832942	-0.553354	0.002566	-0.010899	-0.011770	0.999871	
4257														-0.051725	-0.077514	9.809178	-0.553236	-0.832875	-0.015808	0.832953	-0.553337	0.002605	-0.010917	-0.011726	0.999872	
4258														-0.061345	-0.046290	9.778899	-0.553254	-0.832863	-0.015790	0.832941	-0.553355	0.002614	-0.010915	-0.011706	0.999872	
4259														-0.066809	-0.074667	9.808091	-0.553252	-0.832864	-0.015801	0.832942	-0.553354	0.002631	-0.010935	-0.011706	0.999872	
4260														-0.051059	-0.061019	9.809199	-0.553236	-0.832875	-0.015782	0.832953	-0.553338	0.002641	-0.010932	-0.011685	0.999872	
4261														-0.052677	-0.074973	9.809192	-0.553241	-0.832872	-0.015768	0.832949	-0.553343	0.002636	-0.010921	-0.011676	0.999872	
4262														-0.065881	-0.058237	9.808110	-0.553232	-0.832878	-0.015744	0.832955	-0.553334	0.002659	-0.010926	-0.011643	0.999873	
4263														-0.068640	-0.072038	9.822712	-0.553252	-0.832866	-0.015729	0.832943	-0.553353	0.002654	-0.010914	-0.011634	0.999873	
4264														-0.065140	-0.057111	9.793508	-0.553240	-0.832873	-0.015726	0.832950	-0.553341	0.002668	-0.010924	-0.011623	0.999873	
4265														-0.050836	-0.057982	9.794606	-0.553259	-0.832861	-0.015708	0.832938	-0.553361	0.002677	-0.010922	-0.011603	0.999873	
4266														-0.068017	-0.070298	9.808115	-0.553261	-0.832860	-0.015678	0.832936	-0.553362	0.002668	-0.010897	-0.011583	0.999874	
4267														-0.065443	-0.055116	9.793517	-0.553247	-0.832871	-0.015644	0.832946	-0.553347	0.002674	-0.010883	-0.011552	0.999874	
4268														-0.037935	-0.071994	9.795711	-0.553250	-0.832868	-0.015630	0.832944	-0.553351	0.002669	-0.010871	-0.011542	0.999874	
4269														-0.068310	-0.068189	9.808128	-0.553248	-0.832871	-0.015604	0.832946	-0.553348	0.002707	-0.010889	-0.011500	0.999875	
4270														-0.051920	-0.069160	9.780014	-0.553234	-0.832880	-0.015599	0.832954	-0.553335	0.002721	-0.010898	-0.011488	0.999875	
4271														-0.054436	-0.068313	9.809231	-0.553256	-0.832866	-0.015592	0.832940	-0.553356	0.002749	-0.010918	-0.011467	0.999875	
4272														-0.055163	-0.082378	9.794627	-0.553283	-0.832847	-0.015591	0.832922	-0.553384	0.002763	-0.010929	-0.011457	0.999875	
4273														-0.068341	-0.065926	9.793529	-0.553279	-0.832850	-0.015599	0.832924	-0.553380	0.002731	-0.010906	-0.011482	0.999875	
4274														-0.053884	-0.066949	9.794631	-0.553263	-0.832861	-0.015578	0.832936	-0.553363	0.002740	-0.010903	-0.011459	0.999875	
4275														-0.039904	-0.082336	9.781131	-0.553257	-0.832865	-0.015540	0.832939	-0.553358	0.002760	-0.010898	-0.011417	0.999875	
4276														-0.068801	-0.063970	9.793539	-0.553255	-0.832867	-0.015536	0.832941	-0.553355	0.002772	-0.010906	-0.011407	0.999875	
4277														-0.054607	-0.064929	9.794641	-0.553272	-0.832856	-0.015548	0.832929	-0.553373	0.002789	-0.010926	-0.011407	0.999875	
4278														-0.057025	-0.064080	9.823858	-0.553267	-0.832859	-0.015514	0.832932	-0.553368	0.002793	-0.010911	-0.011377	0.999876	
4279														-0.054900	-0.063649	9.794648	-0.553277	-0.832853	-0.015500	0.832926	-0.553378	0.002789	-0.010900	-0.011367	0.999876	
4280														-0.055551	-0.077561	9.780052	-0.553282	-0.832850	-0.015470	0.832922	-0.553383	0.002843	-0.010928	-0.011312	0.999876	
4281														-0.040959	-0.063499	9.795757	-0.553262	-0.832864	-0.015451	0.832936	-0.553362	0.002851	-0.010925	-0.011292	0.999877	
4282														-0.071571	-0.074582	9.793565	-0.553317	-0.832827	-0.015442	0.832899	-0.553417	0.002830	-0.010903	-0.011295	0.999877	
4283														-0.055743	-0.060920	9.794660	-0.553298	-0.832840	-0.015434	0.832912	-0.553399	0.002858	-0.010922	-0.011274	0.999877	
4284														-0.058532	-0.074643	9.809282	-0.553298	-0.832841	-0.015400	0.832912	-0.553398	0.002863	-0.010907	-0.011242	0.999877	
4285														-0.041278	-0.046234	9.810365	-0.553300	-0.832840	-0.015393	0.832911	-0.553400	0.002891	-0.010926	-0.011221	0.999877	
4286														-0.072576	-0.072005	9.793576	-0.553317	-0.832828	-0.015404	0.832899	-0.553418	0.002907	-0.010946	-0.011222	0.999877	
4287														-0.072963	-0.071435	9.793578	-0.553315	-0.832830	-0.015396	0.832900	-0.553415	0.002935	-0.010964	-0.011200	0.999877	
4288														-0.059859	-0.072144	9.809293	-0.553298	-0.832841	-0.015393	0.832911	-0.553399	0.002947	-0.010973	-0.011190	0.999877	
4289														-0.058986	-0.071651	9.794689	-0.553314	-0.832831	-0.015374	0.832900	-0.553415	0.002956	-0.010970	-0.011170	0.999877	
4290														-0.073436	-0.054920	9.808174	-0.553290	-0.832846	-0.015384	0.832916	-0.553391	0.002972	-0.010989	-0.011169	0.999877	
4291														-0.075276	-0.068707	9.808194	-0.553290	-0.832847	-0.015340	0.832916	-0.553391	0.003021	-0.011005	-0.011105	0.999878	
4292														-0.059963	-0.069457	9.794699	-0.553291	-0.832847	-0.015336	0.832915	-0.553392	0.003034	-0.011014	-0.011095	0.999878	
4293														-0.045599	-0.070240	9.795811	-0.553280	-0.832855	-0.015303	0.832923	-0.553381	0.003040	-0.011000	-0.011064	0.999878	
4294														-0.060302	-0.068112	9.794706	-0.553278	-0.832856	-0.015298	0.832924	-0.553379	0.003053	-0.011008	-0.011053	0.999878	
4295														-0.076630	-0.080714	9.793620	-0.553259	-0.832869	-0.015308	0.832936	-0.553360	0.003070	-0.011028	-0.011052	0.999878	
4296														-0.060861	-0.066965	9.794711	-0.553236	-0.832884	-0.015274	0.832951	-0.553337	0.003074	-0.011012	-0.011021	0.999879	
4297														-0.046551	-0.067789	9.795824	-0.553222	-0.832894	-0.015284	0.832961	-0.553323	0.003092	-0.011032	-0.011021	0.999878	
4298														-0.049257	-0.067048	9.825037	-0.553256	-0.832871	-0.015308	0.832938	-0.553358	0.003126	-0.011075	-0.011022	0.999878	
4299														-0.076608	-0.063742	9.793603	-0.553258	-0.832870	-0.015283	0.832936	-0.553360	0.003164	-0.011092	-0.010979	0.999878	
4300														-0.050071	-0.065530	9.825044	-0.553281	-0.832855	-0.015262	0.832920	-0.553384	0.003188	-0.011101	-0.010948	0.999878	
4301														-0.076048	-0.062328	9.779003	-0.553286	-0.832852	-0.015244	0.832917	-0.553388	0.003197	-0.011099	-0.010928	0.999879	
4302														-0.078831	-0.076152	9.793639	-0.553312	-0.832835	-0.015242	0.832900	-0.553414	0.003210	-0.011109	-0.010918	0.999879	
4303														-0.047489	-0.064036	9.781234	-0.553315	-0.832833	-0.015239	0.832898	-0.553417	0.003223	-0.011118	-0.010909	0.999879	
4304														-0.063412	-0.061888	9.794728	-0.553332	-0.832821	-0.015236	0.832887	-0.553434	0.003235	-0.011126	-0.010899	0.999879	
4305														-0.061532	-0.061549	9.765518	-0.553335	-0.832820	-0.015227	0.832884	-0.553438	0.003263	-0.011145	-0.010877	0.999879	
4306														-0.065027	-0.060559	9.809338	-0.553318	-0.832831	-0.015216	0.832896	-0.553420	0.003243	-0.011121	-0.010879	0.999879	
4307														-0.052111	-0.076003	9.810489	-0.553297	-0.832846	-0.015207	0.832910	-0.553399	0.003270	-0.011139	-0.010856	0.999879	
4308														-0.064475	-0.059445	9.794736	-0.553279	-0.832857	-0.015198	0.832921	-0.553381	0.003298	-0.011157	-0.010834	0.999879	
4309														-0.067299	-0.073197	9.809379	-0.553262	-0.832869	-0.015179	0.832933	-0.553364	0.003307	-0.011154	-0.010813	0.999879	
4310														-0.083114	-0.070949	9.822871	-0.553280	-0.832858	-0.015162	0.832921	-0.553382	0.003315	-0.011151	-0.010795	0.999880	
4311														-0.064145	-0.057620	9.780137	-0.553279	-0.832858	-0.015170	0.832921	-0.553382	0.003346	-0.011181	-0.010784	0.999879	
4312														-0.068080	-0.071234	9.809388	-0.553297	-0.832846	-0.015138	0.832909	-0.553400	0.003350	-0.011168	-0.010755	0.999880	
4313														-0.050006	-0.057668	9.781261	-0.553313	-0.832836	-0.015121	0.832899	-0.553415	0.003358	-0.011165	-0.010736	0.999880	
4314														-0.068375	-0.069960	9.809395	-0.553304	-0.832842	-0.015120	0.832904	-0.553407	0.003355	-0.011162	-0.010738	0.999880	
4315														-0.051840	-0.070961	9.781307	-0.553307	-0.832841	-0.015079	0.832903	-0.553409	0.003389	-0.011168	-0.010684	0.999881	
4316														-0.068762	-0.068459	9.809403	-0.553308	-0.832841	-0.015065	0.832902	-0.553410	0.003383	-0.011155	-0.010676	0.999881	
4317														-0.069943	-0.067749	9.824012	-0.553305	-0.832843	-0.015049	0.832904	-0.553407	0.003377	-0.011141	-0.010666	0.999881	
4318														-0.080210	-0.066366	9.764472	-0.553289	-0.832853	-0.015045	0.832914	-0.553391	0.003390	-0.011149	-0.010656	0.999881	
4319														-0.053315	-0.053496	9.810489	-0.553275	-0.832863	-0.015023	0.832924	-0.553377	0.003413	-0.011156	-0.010625	0.999881	
4320														-0.052484	-0.052980	9.795885	-0.553331	-0.832826	-0.015023	0.832886	-0.553433	0.003425	-0.011167	-0.010618	0.999881	
4321														-0.069789	-0.065370	9.809417	-0.553310	-0.832840	-0.015003	0.832901	-0.553412	0.003433	-0.011162	-0.010596	0.999882	
4322														-0.054426	-0.066478	9.795935	-0.553302	-0.832845	-0.015032	0.832906	-0.553404	0.003438	-0.011182	-0.010618	0.999881	
4323														-0.066767	-0.050227	9.780160	-0.553316	-0.832836	-0.015029	0.832896	-0.553419	0.003450	-0.011190	-0.010609	0.999881	
4324														-0.070647	-0.063877	9.809420	-0.553313	-0.832838	-0.015010	0.832899	-0.553415	0.003458	-0.011187	-0.010588	0.999881	
4325														-0.056237	-0.064784	9.810546	-0.553308	-0.832841	-0.015014	0.832902	-0.553410	0.003440	-0.011174	-0.010602	0.999881	
4326														-0.055354	-0.064428	9.795943	-0.553302	-0.832845	-0.015008	0.832905	-0.553404	0.003466	-0.011192	-0.010582	0.999881	
4327														-0.070322	-0.062276	9.794821	-0.553278	-0.832862	-0.014996	0.832921	-0.553381	0.003508	-0.011220	-0.010550	0.999881	
4328														-0.060035	-0.070262	9.792041	-0.553268	-0.832868	-0.015005	0.832928	-0.553371	0.003498	-0.011217	-0.010563	0.999881	
4329														-0.049748	-0.078248	9.789261	-0.553258	-0.832874	-0.015014	0.832934	-0.553361	0.003488	-0.011213	-0.010576	0.999881	
4330														-0.054955	-0.047565	9.795900	-0.553266	-0.832870	-0.014981	0.832929	-0.553368	0.003495	-0.011201	-0.010544	0.999882	
4331														-0.071192	-0.060171	9.794828	-0.553268	-0.832869	-0.014991	0.832928	-0.553370	0.003512	-0.011220	-0.010544	0.999881	
4332														-0.058054	-0.060846	9.810561	-0.553277	-0.832863	-0.014973	0.832922	-0.553379	0.003521	-0.011218	-0.010524	0.999882	
4333														-0.057516	-0.075183	9.781408	-0.553283	-0.832858	-0.014985	0.832917	-0.553386	0.003537	-0.011239	-0.010524	0.999881	
4334														-0.073399	-0.073099	9.794888	-0.553278	-0.832862	-0.014973	0.832921	-0.553381	0.003532	-0.011227	-0.010517	0.999882	
4335														-0.057669	-0.059191	9.795963	-0.553281	-0.832860	-0.014948	0.832919	-0.553384	0.003572	-0.011247	-0.010474	0.999882	
4336														-0.072423	-0.056959	9.794838	-0.553303	-0.832847	-0.014915	0.832904	-0.553405	0.003577	-0.011233	-0.010444	0.999882	
4337														-0.060640	-0.072154	9.810633	-0.553284	-0.832859	-0.014927	0.832917	-0.553387	0.003593	-0.011252	-0.010445	0.999882	
4338														-0.030731	-0.074651	9.798290	-0.553279	-0.832862	-0.014927	0.832920	-0.553382	0.003589	-0.011250	-0.010447	0.999882	
4339														-0.058577	-0.056712	9.795972	-0.553297	-0.832851	-0.014909	0.832908	-0.553399	0.003597	-0.011247	-0.010428	0.999882	
4340														-0.061385	-0.070558	9.810640	-0.553298	-0.832850	-0.014923	0.832907	-0.553401	0.003613	-0.011267	-0.010430	0.999882	
4341														-0.061772	-0.069983	9.810642	-0.553295	-0.832852	-0.014916	0.832909	-0.553398	0.003639	-0.011285	-0.010410	0.999882	
4342														-0.046335	-0.070821	9.797173	-0.553301	-0.832848	-0.014883	0.832905	-0.553404	0.003645	-0.011271	-0.010379	0.999883	
4343														-0.062284	-0.083295	9.796110	-0.553315	-0.832839	-0.014855	0.832896	-0.553418	0.003635	-0.011249	-0.010361	0.999883	
4344														-0.047695	-0.069415	9.811785	-0.553302	-0.832848	-0.014882	0.832904	-0.553405	0.003655	-0.011280	-0.010372	0.999883	
4345														-0.062565	-0.067395	9.810655	-0.553304	-0.832847	-0.014847	0.832903	-0.553407	0.003674	-0.011277	-0.010333	0.999883	
4346														-0.061614	-0.066899	9.796054	-0.553301	-0.832849	-0.014848	0.832905	-0.553404	0.003671	-0.011275	-0.010336	0.999883	
4347														-0.076439	-0.065049	9.794921	-0.553304	-0.832847	-0.014861	0.832903	-0.553407	0.003687	-0.011295	-0.010337	0.999883	
4348														-0.050110	-0.081710	9.811864	-0.553282	-0.832862	-0.014847	0.832918	-0.553385	0.003680	-0.011281	-0.010330	0.999883	
4349														-0.062404	-0.065238	9.796060	-0.553261	-0.832876	-0.014836	0.832931	-0.553364	0.003721	-0.011309	-0.010299	0.999883	
4350														-0.048729	-0.095406	9.768130	-0.553254	-0.832881	-0.014818	0.832936	-0.553357	0.003728	-0.011305	-0.010280	0.999883	
4351														-0.063057	-0.063775	9.796065	-0.553248	-0.832885	-0.014807	0.832939	-0.553351	0.003769	-0.011333	-0.010249	0.999883	
4352														-0.064459	-0.062921	9.810672	-0.553249	-0.832884	-0.014794	0.832939	-0.553352	0.003762	-0.011320	-0.010241	0.999883	
4353														-0.077729	-0.046341	9.809465	-0.553227	-0.832899	-0.014775	0.832954	-0.553330	0.003770	-0.011315	-0.010221	0.999884	
4354														-0.050094	-0.062800	9.811817	-0.553231	-0.832898	-0.014710	0.832951	-0.553333	0.003781	-0.011289	-0.010160	0.999885	
4355														-0.064959	-0.075520	9.796156	-0.553216	-0.832908	-0.014728	0.832962	-0.553318	0.003768	-0.011288	-0.010184	0.999884	
4356														-0.062738	-0.060759	9.781476	-0.553215	-0.832908	-0.014740	0.832962	-0.553318	0.003783	-0.011307	-0.010185	0.999884	
4357														-0.035072	-0.062859	9.798358	-0.553212	-0.832910	-0.014740	0.832964	-0.553314	0.003780	-0.011304	-0.010187	0.999884	
4358														-0.049786	-0.060917	9.797222	-0.553197	-0.832921	-0.014722	0.832974	-0.553299	0.003788	-0.011301	-0.010168	0.999884	
4359														-0.048742	-0.045811	9.797146	-0.553195	-0.832921	-0.014750	0.832974	-0.553298	0.003806	-0.011331	-0.010180	0.999884	
4360														-0.066429	-0.073033	9.796165	-0.553195	-0.832922	-0.014729	0.832975	-0.553298	0.003829	-0.011339	-0.010151	0.999884	
4361														-0.052115	-0.073782	9.797308	-0.553196	-0.832921	-0.014731	0.832974	-0.553299	0.003825	-0.011337	-0.010154	0.999884	
4362														-0.050798	-0.058428	9.797232	-0.553193	-0.832924	-0.014665	0.832976	-0.553295	0.003836	-0.011309	-0.010094	0.999885	
4363														-0.065700	-0.071107	9.781574	-0.553159	-0.832947	-0.014680	0.832999	-0.553261	0.003837	-0.011318	-0.010106	0.999885	
4364														-0.050117	-0.057360	9.782634	-0.553140	-0.832959	-0.014673	0.833011	-0.553243	0.003864	-0.011336	-0.010086	0.999885	
4365														-0.081926	-0.068410	9.795040	-0.553165	-0.832943	-0.014661	0.832995	-0.553267	0.003857	-0.011324	-0.010079	0.999885	
4366														-0.065300	-0.069488	9.766978	-0.553167	-0.832941	-0.014641	0.832993	-0.553270	0.003880	-0.011332	-0.010050	0.999885	
4367														-0.053104	-0.054960	9.811849	-0.553158	-0.832948	-0.014634	0.832999	-0.553261	0.003905	-0.011349	-0.010030	0.999885	
4368														-0.066981	-0.067951	9.781587	-0.553160	-0.832947	-0.014621	0.832998	-0.553262	0.003898	-0.011336	-0.010023	0.999886	
4369														-0.064602	-0.052944	9.766900	-0.553150	-0.832954	-0.014605	0.833005	-0.553252	0.003906	-0.011334	-0.010006	0.999886	
4370														-0.056362	-0.082320	9.812033	-0.553152	-0.832953	-0.014606	0.833004	-0.553254	0.003903	-0.011332	-0.010008	0.999886	
4371														-0.051599	-0.053026	9.782650	-0.553154	-0.832951	-0.014604	0.833002	-0.553257	0.003915	-0.011340	-0.010000	0.999886	
4372														-0.069024	-0.065487	9.796200	-0.553160	-0.832947	-0.014614	0.832997	-0.553263	0.003945	-0.011371	-0.009991	0.999885	
4373														-0.056002	-0.066069	9.811950	-0.553156	-0.832950	-0.014611	0.833000	-0.553258	0.003956	-0.011379	-0.009983	0.999885	
4374														-0.055046	-0.065701	9.797349	-0.553156	-0.832950	-0.014598	0.833000	-0.553258	0.003949	-0.011365	-0.009976	0.999886	
4375														-0.055217	-0.065031	9.797353	-0.553161	-0.832947	-0.014577	0.832997	-0.553264	0.003971	-0.011373	-0.009946	0.999886	
4376														-0.056959	-0.078936	9.797449	-0.553157	-0.832949	-0.014586	0.832999	-0.553260	0.004001	-0.011402	-0.009937	0.999886	
4377														-0.070474	-0.062382	9.796210	-0.553183	-0.832932	-0.014569	0.832982	-0.553286	0.004009	-0.011400	-0.009918	0.999886	
4378														-0.056212	-0.063057	9.797360	-0.553180	-0.832934	-0.014564	0.832984	-0.553283	0.004034	-0.011418	-0.009900	0.999886	
4379														-0.057568	-0.062130	9.811967	-0.553185	-0.832931	-0.014533	0.832980	-0.553288	0.004039	-0.011405	-0.009871	0.999886	
4380														-0.061529	-0.090376	9.826769	-0.553196	-0.832925	-0.014516	0.832973	-0.553299	0.004047	-0.011403	-0.009853	0.999886	
4381														-0.055317	-0.046411	9.797272	-0.553191	-0.832928	-0.014503	0.832976	-0.553294	0.004040	-0.011389	-0.009846	0.999887	
4382														-0.055712	-0.060637	9.782770	-0.553186	-0.832931	-0.014501	0.832980	-0.553289	0.004050	-0.011397	-0.009838	0.999887	
4383														-0.058426	-0.074398	9.797476	-0.553179	-0.832936	-0.014484	0.832984	-0.553282	0.004057	-0.011393	-0.009821	0.999887	
4384														-0.057514	-0.073981	9.782876	-0.553165	-0.832946	-0.014482	0.832994	-0.553267	0.004068	-0.011401	-0.009813	0.999887	
4385														-0.057637	-0.058670	9.797379	-0.553179	-0.832936	-0.014496	0.832984	-0.553282	0.004082	-0.011421	-0.009817	0.999887	
4386														-0.072675	-0.071565	9.781729	-0.553196	-0.832925	-0.014481	0.832973	-0.553299	0.004089	-0.011418	-0.009800	0.999887	
4387														-0.058150	-0.057491	9.797383	-0.553195	-0.832926	-0.014479	0.832973	-0.553298	0.004100	-0.011426	-0.009792	0.999887	
4388														-0.058686	-0.071556	9.782887	-0.553194	-0.832927	-0.014455	0.832974	-0.553296	0.004137	-0.011444	-0.009752	0.999887	
4389														-0.045403	-0.057152	9.813143	-0.553196	-0.832926	-0.014454	0.832973	-0.553299	0.004148	-0.011452	-0.009745	0.999887	
4390														-0.061725	-0.084689	9.797602	-0.553195	-0.832927	-0.014455	0.832973	-0.553298	0.004144	-0.011450	-0.009748	0.999887	
4391														-0.075051	-0.068267	9.796345	-0.553209	-0.832917	-0.014442	0.832964	-0.553312	0.004136	-0.011436	-0.009742	0.999887	
4392														-0.059539	-0.069137	9.782900	-0.553173	-0.832942	-0.014421	0.832988	-0.553276	0.004159	-0.011443	-0.009712	0.999887	
4393														-0.061015	-0.068405	9.797504	-0.553203	-0.832921	-0.014454	0.832968	-0.553306	0.004161	-0.011463	-0.009738	0.999887	
4394														-0.046867	-0.069269	9.798659	-0.553199	-0.832924	-0.014447	0.832970	-0.553302	0.004187	-0.011481	-0.009718	0.999887	
4395														-0.061548	-0.052619	9.811998	-0.553178	-0.832937	-0.014463	0.832984	-0.553282	0.004186	-0.011489	-0.009732	0.999887	
4396														-0.048822	-0.082861	9.798774	-0.553159	-0.832950	-0.014461	0.832997	-0.553262	0.004197	-0.011497	-0.009724	0.999887	
4397														-0.062255	-0.066331	9.797510	-0.553183	-0.832935	-0.014447	0.832981	-0.553286	0.004205	-0.011495	-0.009708	0.999887	
4398														-0.063717	-0.080416	9.797625	-0.553198	-0.832924	-0.014453	0.832970	-0.553302	0.004185	-0.011483	-0.009723	0.999887	
4399														-0.064902	-0.064886	9.826719	-0.553215	-0.832914	-0.014450	0.832959	-0.553318	0.004210	-0.011502	-0.009707	0.999887	
4400														-0.077672	-0.077973	9.781872	-0.553199	-0.832924	-0.014410	0.832969	-0.553303	0.004244	-0.011508	-0.009655	0.999887	
4401														-0.064500	-0.078556	9.797635	-0.553204	-0.832920	-0.014450	0.832966	-0.553308	0.004218	-0.011509	-0.009703	0.999887	
4402														-0.063244	-0.063512	9.797522	-0.553185	-0.832934	-0.014404	0.832980	-0.553288	0.004218	-0.011483	-0.009665	0.999887	
4403														-0.048760	-0.064053	9.798686	-0.553184	-0.832935	-0.014387	0.832980	-0.553286	0.004225	-0.011479	-0.009647	0.999888	
4404														-0.050369	-0.078070	9.798806	-0.553187	-0.832933	-0.014400	0.832978	-0.553290	0.004240	-0.011499	-0.009650	0.999887	
4405														-0.063918	-0.061545	9.797531	-0.553194	-0.832928	-0.014380	0.832973	-0.553297	0.004262	-0.011506	-0.009621	0.999888	
4406														-0.066713	-0.075176	9.812255	-0.553174	-0.832942	-0.014374	0.832986	-0.553278	0.004288	-0.011524	-0.009602	0.999887	
4407														-0.063479	-0.060350	9.782933	-0.553151	-0.832957	-0.014369	0.833001	-0.553254	0.004313	-0.011542	-0.009583	0.999887	
4408														-0.050208	-0.060928	9.798698	-0.553181	-0.832937	-0.014363	0.832982	-0.553284	0.004274	-0.011507	-0.009599	0.999888	
4409														-0.067277	-0.058658	9.826742	-0.553156	-0.832954	-0.014368	0.832997	-0.553260	0.004318	-0.011546	-0.009580	0.999887	
4410														-0.053284	-0.073988	9.813428	-0.553147	-0.832960	-0.014332	0.833003	-0.553251	0.004335	-0.011540	-0.009541	0.999888	
4411														-0.066854	-0.072244	9.797668	-0.553152	-0.832957	-0.014334	0.833000	-0.553256	0.004329	-0.011536	-0.009546	0.999888	
4412														-0.051225	-0.058448	9.798708	-0.553166	-0.832948	-0.014334	0.832991	-0.553269	0.004341	-0.011546	-0.009539	0.999888	
4413														-0.050361	-0.058111	9.784108	-0.553184	-0.832936	-0.014334	0.832979	-0.553288	0.004351	-0.011555	-0.009533	0.999888	
4414														-0.053161	-0.071855	9.798839	-0.553222	-0.832911	-0.014331	0.832954	-0.553325	0.004376	-0.011574	-0.009516	0.999888	
4415														-0.052182	-0.056652	9.798714	-0.553243	-0.832897	-0.014330	0.832940	-0.553347	0.004386	-0.011583	-0.009510	0.999888	
4416														-0.068430	-0.069370	9.797678	-0.553251	-0.832891	-0.014342	0.832934	-0.553355	0.004416	-0.011614	-0.009502	0.999887	
4417														-0.068656	-0.068751	9.797681	-0.553250	-0.832893	-0.014314	0.832935	-0.553353	0.004404	-0.011589	-0.009486	0.999888	
4418														-0.053082	-0.054890	9.798719	-0.553253	-0.832890	-0.014338	0.832932	-0.553358	0.004438	-0.011630	-0.009487	0.999887	
4419														-0.071670	-0.066975	9.826887	-0.553241	-0.832899	-0.014300	0.832940	-0.553345	0.004471	-0.011637	-0.009437	0.999888	
4420														-0.056344	-0.082389	9.798990	-0.553241	-0.832899	-0.014266	0.832940	-0.553345	0.004489	-0.011633	-0.009399	0.999888	
4421														-0.040714	-0.068370	9.800029	-0.553254	-0.832890	-0.014265	0.832931	-0.553358	0.004499	-0.011641	-0.009392	0.999888	
4422														-0.068828	-0.065462	9.783094	-0.553254	-0.832891	-0.014252	0.832931	-0.553358	0.004491	-0.011627	-0.009387	0.999888	
4423														-0.056814	-0.065657	9.813468	-0.553255	-0.832890	-0.014248	0.832931	-0.553359	0.004516	-0.011645	-0.009369	0.999888	
4424														-0.055999	-0.065376	9.798868	-0.553253	-0.832891	-0.014265	0.832932	-0.553358	0.004515	-0.011654	-0.009384	0.999888	
4425														-0.070988	-0.063567	9.797699	-0.553261	-0.832886	-0.014274	0.832926	-0.553366	0.004557	-0.011694	-0.009368	0.999888	
4426														-0.057977	-0.063927	9.813472	-0.553211	-0.832919	-0.014256	0.832959	-0.553316	0.004565	-0.011690	-0.009349	0.999888	
4427														-0.057146	-0.063427	9.798874	-0.553221	-0.832913	-0.014247	0.832952	-0.553326	0.004606	-0.011720	-0.009319	0.999888	
4428														-0.070923	-0.061812	9.783103	-0.553220	-0.832913	-0.014265	0.832953	-0.553325	0.004606	-0.011729	-0.009334	0.999888	
4429														-0.058922	-0.062099	9.813479	-0.553247	-0.832895	-0.014250	0.832934	-0.553352	0.004613	-0.011727	-0.009317	0.999888	
4430														-0.072483	-0.060390	9.797708	-0.553239	-0.832901	-0.014234	0.832940	-0.553344	0.004620	-0.011724	-0.009300	0.999888	
4431														-0.059355	-0.075647	9.799026	-0.553257	-0.832889	-0.014224	0.832928	-0.553362	0.004612	-0.011712	-0.009297	0.999888	
4432														-0.042506	-0.047281	9.799916	-0.553244	-0.832897	-0.014253	0.832936	-0.553350	0.004630	-0.011743	-0.009310	0.999888	
4433														-0.060077	-0.074649	9.799030	-0.553215	-0.832917	-0.014245	0.832956	-0.553320	0.004656	-0.011761	-0.009290	0.999888	
4434														-0.057903	-0.059627	9.784288	-0.553213	-0.832918	-0.014228	0.832957	-0.553318	0.004660	-0.011755	-0.009273	0.999888	
4435														-0.061656	-0.087951	9.799183	-0.553205	-0.832924	-0.014206	0.832963	-0.553309	0.004635	-0.011721	-0.009269	0.999888	
4436														-0.058089	-0.058344	9.784295	-0.553198	-0.832929	-0.014197	0.832967	-0.553303	0.004673	-0.011748	-0.009241	0.999888	
4437														-0.043932	-0.059046	9.785472	-0.553210	-0.832921	-0.014216	0.832959	-0.553315	0.004671	-0.011757	-0.009257	0.999888	
4438														-0.075622	-0.055431	9.812322	-0.553183	-0.832939	-0.014193	0.832977	-0.553288	0.004695	-0.011763	-0.009226	0.999888	
4439														-0.049371	-0.086364	9.814977	-0.553183	-0.832939	-0.014173	0.832977	-0.553288	0.004716	-0.011770	-0.009197	0.999888	
4440														-0.076300	-0.068919	9.797875	-0.553188	-0.832935	-0.014190	0.832973	-0.553293	0.004715	-0.011779	-0.009211	0.999888	
4441														-0.060930	-0.069920	9.784454	-0.553196	-0.832931	-0.014187	0.832968	-0.553301	0.004741	-0.011799	-0.009194	0.999888	
4442														-0.061214	-0.069454	9.784455	-0.553168	-0.832948	-0.014209	0.832986	-0.553274	0.004725	-0.011797	-0.009223	0.999888	
4443														-0.063816	-0.068373	9.813658	-0.553161	-0.832954	-0.014186	0.832991	-0.553266	0.004760	-0.011814	-0.009184	0.999888	
4444														-0.047268	-0.069306	9.785641	-0.553136	-0.832971	-0.014166	0.833007	-0.553241	0.004781	-0.011820	-0.009156	0.999888	
4445														-0.061919	-0.052468	9.798910	-0.553135	-0.832971	-0.014150	0.833008	-0.553241	0.004787	-0.011816	-0.009139	0.999888	
4446														-0.064643	-0.080982	9.799224	-0.553137	-0.832970	-0.014136	0.833007	-0.553242	0.004794	-0.011814	-0.009123	0.999889	
4447														-0.049000	-0.067091	9.800252	-0.553174	-0.832946	-0.014140	0.832982	-0.553279	0.004789	-0.011812	-0.009130	0.999889	
4448														-0.049331	-0.066366	9.800255	-0.553195	-0.832932	-0.014115	0.832967	-0.553301	0.004842	-0.011842	-0.009079	0.999889	
4449														-0.065576	-0.078759	9.799236	-0.553211	-0.832922	-0.014093	0.832956	-0.553317	0.004877	-0.011860	-0.009041	0.999889	
4450														-0.064478	-0.063503	9.799080	-0.553229	-0.832910	-0.014087	0.832945	-0.553334	0.004854	-0.011837	-0.009048	0.999889	
4451														-0.062275	-0.063518	9.769883	-0.553215	-0.832919	-0.014087	0.832954	-0.553320	0.004864	-0.011846	-0.009043	0.999889	
4452														-0.050388	-0.063619	9.800268	-0.553214	-0.832920	-0.014083	0.832955	-0.553319	0.004889	-0.011864	-0.009026	0.999889	
4453														-0.067753	-0.090982	9.799411	-0.553214	-0.832920	-0.014087	0.832955	-0.553319	0.004884	-0.011862	-0.009032	0.999889	
4454														-0.050851	-0.062589	9.800272	-0.553220	-0.832916	-0.014088	0.832951	-0.553325	0.004879	-0.011859	-0.009036	0.999889	
4455														-0.049972	-0.062392	9.785674	-0.553228	-0.832910	-0.014103	0.832945	-0.553334	0.004891	-0.011878	-0.009041	0.999889	
4456														-0.068554	-0.089450	9.799419	-0.553258	-0.832891	-0.014086	0.832925	-0.553363	0.004912	-0.011885	-0.009015	0.999889	
4457														-0.067521	-0.059370	9.813691	-0.553212	-0.832921	-0.014098	0.832955	-0.553319	0.004927	-0.011904	-0.009017	0.999888	
4458														-0.067801	-0.058794	9.813693	-0.553230	-0.832909	-0.014084	0.832943	-0.553336	0.004932	-0.011901	-0.009002	0.999889	
4459														-0.053524	-0.074334	9.800449	-0.553217	-0.832918	-0.014085	0.832952	-0.553323	0.004928	-0.011899	-0.009006	0.999889	
4460														-0.050105	-0.059815	9.771086	-0.553213	-0.832921	-0.014089	0.832955	-0.553319	0.004923	-0.011897	-0.009012	0.999889	
4461														-0.053827	-0.073360	9.800455	-0.553212	-0.832921	-0.014076	0.832955	-0.553318	0.004915	-0.011882	-0.009006	0.999889	
4462														-0.067243	-0.057020	9.799102	-0.553227	-0.832912	-0.014079	0.832946	-0.553333	0.004909	-0.011879	-0.009011	0.999889	
4463														-0.052768	-0.057703	9.800292	-0.553228	-0.832911	-0.014053	0.832945	-0.553333	0.004897	-0.011855	-0.008997	0.999889	
4464														-0.052888	-0.057083	9.800295	-0.553212	-0.832922	-0.014052	0.832956	-0.553317	0.004907	-0.011863	-0.008990	0.999889	
4465														-0.053200	-0.071329	9.785870	-0.553222	-0.832915	-0.014040	0.832949	-0.553328	0.004912	-0.011860	-0.008977	0.999889	
4466														-0.053288	-0.055792	9.800300	-0.553203	-0.832929	-0.014023	0.832962	-0.553308	0.004917	-0.011855	-0.008960	0.999890	
4467														-0.054815	-0.069703	9.800476	-0.553187	-0.832939	-0.014020	0.832972	-0.553292	0.004942	-0.011874	-0.008944	0.999890	
4468														-0.057321	-0.068372	9.829679	-0.553195	-0.832935	-0.013977	0.832968	-0.553300	0.004942	-0.011849	-0.008908	0.999890	
4469														-0.053849	-0.053611	9.800309	-0.553210	-0.832924	-0.013978	0.832957	-0.553315	0.004951	-0.011858	-0.008904	0.999890	
4470														-0.055275	-0.067643	9.800488	-0.553213	-0.832922	-0.013970	0.832955	-0.553318	0.004943	-0.011847	-0.008902	0.999890	
4471														-0.054351	-0.082122	9.771472	-0.553213	-0.832923	-0.013952	0.832956	-0.553318	0.004964	-0.011854	-0.008875	0.999890	
4472														-0.055627	-0.066513	9.800494	-0.553214	-0.832922	-0.013979	0.832955	-0.553319	0.004933	-0.011844	-0.008915	0.999890	
4473														-0.054587	-0.066391	9.785897	-0.553230	-0.832911	-0.013965	0.832944	-0.553335	0.004938	-0.011840	-0.008900	0.999890	
4474														-0.069589	-0.079361	9.770289	-0.553212	-0.832923	-0.013972	0.832955	-0.553318	0.004982	-0.011880	-0.008882	0.999890	
4475														-0.055240	-0.064928	9.785903	-0.553223	-0.832917	-0.013928	0.832949	-0.553328	0.004981	-0.011856	-0.008846	0.999891	
4476														-0.055290	-0.049334	9.800324	-0.553248	-0.832900	-0.013930	0.832932	-0.553353	0.004992	-0.011866	-0.008841	0.999891	
4477														-0.059171	-0.077620	9.815291	-0.553227	-0.832914	-0.013914	0.832946	-0.553332	0.004997	-0.011861	-0.008825	0.999891	
4478														-0.055805	-0.062863	9.785914	-0.553237	-0.832908	-0.013893	0.832940	-0.553341	0.005018	-0.011867	-0.008796	0.999891	
4479														-0.059839	-0.091092	9.800885	-0.553256	-0.832895	-0.013904	0.832926	-0.553361	0.005046	-0.011897	-0.008789	0.999891	
4480														-0.058924	-0.060940	9.815115	-0.553259	-0.832893	-0.013886	0.832924	-0.553364	0.005068	-0.011905	-0.008763	0.999891	
4481														-0.059209	-0.075099	9.800707	-0.553282	-0.832879	-0.013872	0.832909	-0.553386	0.005074	-0.011903	-0.008747	0.999891	
4482														-0.059536	-0.059543	9.815119	-0.553292	-0.832872	-0.013881	0.832902	-0.553397	0.005116	-0.011943	-0.008732	0.999891	
4483														-0.072175	-0.058381	9.784727	-0.553265	-0.832889	-0.013899	0.832920	-0.553370	0.005113	-0.011950	-0.008748	0.999890	
4484														-0.060321	-0.073438	9.800712	-0.553286	-0.832875	-0.013900	0.832905	-0.553392	0.005123	-0.011959	-0.008743	0.999890	
4485														-0.061722	-0.072426	9.815315	-0.553279	-0.832881	-0.013869	0.832910	-0.553384	0.005139	-0.011955	-0.008708	0.999891	
