// Start Time: Unknown: 
// Update Rate: 100.0Hz 
// Filter Profile: human (46.1) 
// Firmware Version: 4.6.0
PacketCounter	SampleTimeFine	Year	Month	Day	Second	UTC_Nano	UTC_Year	UTC_Month	UTC_Day UTC_Hour	UTC_Minute	UTC_Second	UTC_Valid	Acc_X	Acc_Y	Acc_Z	Mat[1][1]	Mat[2][1]	Mat[3][1]	Mat[1][2]	Mat[2][2]	Mat[3][2]	Mat[1][3]	Mat[2][3]	Mat[3][3] 
4854														0.073093	-0.024637	9.790040	0.990081	0.140324	-0.007040	-0.140302	0.990103	0.003532	0.007466	-0.002509	0.999969	
4855														0.121922	-0.024709	9.790040	0.990221	0.138993	-0.011981	-0.138952	0.990290	0.004230	0.012453	-0.002524	0.999919	
4856														0.097434	-0.049123	9.814454	0.990148	0.139705	-0.009496	-0.139674	0.990190	0.003873	0.009944	-0.002509	0.999947	
4857														0.097282	-0.024633	9.838870	0.990148	0.139705	-0.009483	-0.139674	0.990190	0.003856	0.009929	-0.002493	0.999948	
6108														0.142716	-0.027495	9.842549	0.990297	0.138684	-0.008901	-0.138663	0.990335	0.002980	0.009228	-0.001717	0.999956	
6109														0.120436	-0.024687	9.646973	0.990294	0.138708	-0.008865	-0.138687	0.990332	0.002976	0.009193	-0.001718	0.999956	
6110														0.114861	-0.007177	10.013540	0.990292	0.138724	-0.008845	-0.138703	0.990330	0.002974	0.009172	-0.001719	0.999956	
6111														0.095139	-0.026070	9.671072	0.990292	0.138718	-0.008839	-0.138697	0.990330	0.002974	0.009167	-0.001719	0.999957	
6112														0.091943	-0.030721	9.915153	0.990292	0.138722	-0.008834	-0.138701	0.990330	0.002974	0.009161	-0.001720	0.999957	
6113														0.069109	-0.003580	9.720016	0.990293	0.138717	-0.008812	-0.138696	0.990331	0.002987	0.009141	-0.001736	0.999957	
6114														0.044104	-0.004898	9.744108	0.990291	0.138728	-0.008792	-0.138707	0.990329	0.002985	0.009121	-0.001736	0.999957	
6115														0.042803	-0.006704	9.841740	0.990294	0.138707	-0.008821	-0.138686	0.990332	0.002959	0.009146	-0.001707	0.999957	
6116														0.068885	-0.003798	9.720017	0.990292	0.138718	-0.008846	-0.138696	0.990331	0.002962	0.009171	-0.001706	0.999956	
6117														0.115661	0.019564	9.843135	0.990293	0.138712	-0.008873	-0.138691	0.990331	0.002951	0.009197	-0.001692	0.999956	
6118														0.117756	-0.003024	9.745056	0.990293	0.138707	-0.008915	-0.138686	0.990332	0.002941	0.009237	-0.001676	0.999956	
6119														0.115769	-0.006181	9.915911	0.990292	0.138716	-0.008927	-0.138695	0.990331	0.002928	0.009246	-0.001661	0.999956	
6120														0.069398	-0.003928	9.720014	0.990289	0.138733	-0.008937	-0.138712	0.990328	0.002930	0.009257	-0.001662	0.999956	
6121														0.142088	-0.053800	9.866522	0.990290	0.138728	-0.008943	-0.138707	0.990329	0.002962	0.009267	-0.001693	0.999956	
6122														0.118102	-0.028381	9.769019	0.990289	0.138734	-0.008927	-0.138713	0.990328	0.002930	0.009247	-0.001663	0.999956	
6123														0.093716	-0.079344	9.841039	0.990293	0.138714	-0.008888	-0.138692	0.990331	0.002956	0.009212	-0.001695	0.999956	
6124														0.092689	-0.055169	9.841486	0.990288	0.138748	-0.008870	-0.138727	0.990326	0.002939	0.009192	-0.001680	0.999956	
6125														0.093385	-0.053805	9.768265	0.990289	0.138742	-0.008867	-0.138721	0.990327	0.002924	0.009187	-0.001666	0.999956	
6126														0.116369	-0.029737	9.817847	0.990288	0.138746	-0.008862	-0.138726	0.990327	0.002924	0.009182	-0.001667	0.999956	
6127														0.116221	-0.029960	9.817848	0.990287	0.138756	-0.008855	-0.138735	0.990325	0.002939	0.009177	-0.001682	0.999956	
6128														0.114919	0.019073	9.794337	0.990289	0.138747	-0.008820	-0.138726	0.990326	0.002935	0.009141	-0.001683	0.999957	
6129														0.089681	0.017962	9.818429	0.990290	0.138741	-0.008773	-0.138720	0.990327	0.002899	0.009090	-0.001654	0.999957	
6130														0.065015	0.042697	9.769739	0.990292	0.138727	-0.008800	-0.138707	0.990329	0.002888	0.009115	-0.001639	0.999957	
6131														0.065362	0.017619	9.793701	0.990290	0.138737	-0.008791	-0.138716	0.990328	0.002918	0.009111	-0.001670	0.999957	
6132														0.016167	0.015638	9.817463	0.990283	0.138786	-0.008802	-0.138766	0.990321	0.002904	0.009120	-0.001654	0.999957	
6133														0.064770	0.041734	9.794149	0.990286	0.138766	-0.008843	-0.138745	0.990324	0.002910	0.009161	-0.001655	0.999957	
6134														0.043267	-0.031354	9.743665	0.990285	0.138765	-0.008883	-0.138745	0.990324	0.002915	0.009201	-0.001655	0.999956	
6135														0.090709	-0.007159	9.817978	0.990286	0.138760	-0.008908	-0.138739	0.990325	0.002919	0.009227	-0.001655	0.999956	
6136														0.116585	-0.055452	9.817399	0.990288	0.138744	-0.008933	-0.138723	0.990327	0.002922	0.009252	-0.001655	0.999956	
6137														0.141724	-0.079193	9.817270	0.990289	0.138738	-0.008947	-0.138718	0.990328	0.002894	0.009262	-0.001625	0.999956	
6138														0.165979	-0.078685	9.817592	0.990286	0.138762	-0.008923	-0.138741	0.990324	0.002923	0.009242	-0.001656	0.999956	
6139														0.115668	-0.056663	9.866217	0.990288	0.138741	-0.008922	-0.138721	0.990327	0.002893	0.009237	-0.001627	0.999956	
6140														0.139730	-0.030839	9.818177	0.990286	0.138761	-0.008883	-0.138741	0.990324	0.002919	0.009202	-0.001659	0.999956	
6141														0.091100	-0.031609	9.768719	0.990285	0.138771	-0.008845	-0.138750	0.990323	0.002931	0.009166	-0.001675	0.999957	
6142														0.041258	-0.008675	9.768524	0.990286	0.138764	-0.008827	-0.138743	0.990324	0.002913	0.009146	-0.001660	0.999957	
6143														0.040607	0.016185	9.744569	0.990285	0.138773	-0.008809	-0.138752	0.990323	0.002896	0.009125	-0.001646	0.999957	
6144														0.039089	0.039664	9.793837	0.990285	0.138771	-0.008806	-0.138750	0.990323	0.002881	0.009121	-0.001631	0.999957	
6145														0.064079	0.015999	9.793712	0.990284	0.138780	-0.008820	-0.138760	0.990322	0.002853	0.009130	-0.001601	0.999957	
6146														0.063838	0.015616	9.818119	0.990289	0.138745	-0.008847	-0.138725	0.990327	0.002842	0.009156	-0.001587	0.999957	
6147														0.113534	-0.007462	9.818317	0.990289	0.138740	-0.008890	-0.138720	0.990328	0.002832	0.009197	-0.001572	0.999956	
6148														0.089282	-0.008267	9.817990	0.990290	0.138730	-0.008898	-0.138710	0.990329	0.002849	0.009207	-0.001587	0.999956	
6149														0.089284	-0.008563	9.817990	0.990289	0.138740	-0.008906	-0.138720	0.990328	0.002866	0.009217	-0.001603	0.999956	
6150														0.139070	-0.031326	9.793780	0.990288	0.138745	-0.008918	-0.138725	0.990327	0.002853	0.009228	-0.001588	0.999956	
6151														0.090543	-0.057510	9.817085	0.990289	0.138739	-0.008915	-0.138719	0.990328	0.002838	0.009222	-0.001574	0.999956	
6152														0.090783	-0.057195	9.792678	0.990286	0.138756	-0.008923	-0.138736	0.990325	0.002855	0.009233	-0.001589	0.999956	
6153														0.114055	-0.032742	9.817865	0.990287	0.138750	-0.008905	-0.138730	0.990326	0.002838	0.009212	-0.001575	0.999956	
6154														0.089427	-0.033406	9.817541	0.990288	0.138744	-0.008901	-0.138724	0.990327	0.002823	0.009207	-0.001560	0.999956	
6155														0.113326	-0.008102	9.793915	0.990287	0.138754	-0.008892	-0.138734	0.990326	0.002853	0.009202	-0.001592	0.999956	
6156														0.088069	-0.009913	9.842405	0.990284	0.138778	-0.008874	-0.138758	0.990322	0.002836	0.009181	-0.001577	0.999957	
6157														0.112802	-0.008470	9.793921	0.990285	0.138773	-0.008852	-0.138753	0.990323	0.002849	0.009161	-0.001593	0.999957	
6158														0.087821	0.015504	9.769642	0.990284	0.138779	-0.008847	-0.138759	0.990322	0.002849	0.009156	-0.001594	0.999957	
6159														0.062207	0.038624	9.794178	0.990285	0.138773	-0.008827	-0.138753	0.990323	0.002847	0.009136	-0.001595	0.999957	
6160														0.063254	-0.010403	9.793269	0.990286	0.138766	-0.008805	-0.138746	0.990324	0.002860	0.009116	-0.001611	0.999957	
6161														0.063107	-0.010702	9.793269	0.990287	0.138760	-0.008813	-0.138740	0.990325	0.002878	0.009127	-0.001627	0.999957	
6162														0.088111	-0.034731	9.793142	0.990284	0.138782	-0.008806	-0.138761	0.990322	0.002892	0.009122	-0.001642	0.999957	
6163														0.087754	-0.009935	9.769192	0.990287	0.138761	-0.008835	-0.138741	0.990325	0.002866	0.009147	-0.001612	0.999957	
6164														0.087868	-0.035342	9.817548	0.990287	0.138756	-0.008843	-0.138735	0.990325	0.002883	0.009158	-0.001628	0.999957	
6165														0.111522	-0.010495	9.818338	0.990286	0.138765	-0.008838	-0.138745	0.990324	0.002883	0.009153	-0.001628	0.999957	
6166														0.136208	-0.034841	9.842618	0.990288	0.138750	-0.008849	-0.138729	0.990326	0.002884	0.009164	-0.001628	0.999957	
6167														0.110905	-0.011261	9.842748	0.990289	0.138744	-0.008814	-0.138724	0.990327	0.002880	0.009128	-0.001630	0.999957	
6168														0.134538	-0.011211	9.867493	0.990289	0.138745	-0.008778	-0.138724	0.990327	0.002876	0.009092	-0.001630	0.999957	
6169														0.111250	-0.035103	9.793483	0.990291	0.138739	-0.008726	-0.138719	0.990328	0.002885	0.009042	-0.001647	0.999958	
6170														0.110335	-0.036101	9.817896	0.990289	0.138754	-0.008668	-0.138733	0.990325	0.002940	0.008992	-0.001709	0.999958	
6171														0.061335	-0.037427	9.792819	0.990292	0.138733	-0.008633	-0.138712	0.990328	0.002937	0.008956	-0.001711	0.999958	
6172														0.084216	-0.013207	9.818030	0.990290	0.138749	-0.008576	-0.138728	0.990326	0.002977	0.008906	-0.001758	0.999959	
6173														0.059621	-0.013934	9.793287	0.990289	0.138759	-0.008537	-0.138738	0.990325	0.003003	0.008871	-0.001790	0.999959	
6174														0.059855	-0.038711	9.792823	0.990290	0.138755	-0.008500	-0.138734	0.990325	0.003015	0.008836	-0.001806	0.999959	
6175														0.083864	-0.012987	9.744818	0.990289	0.138764	-0.008478	-0.138743	0.990324	0.003028	0.008816	-0.001822	0.999959	
6176														0.106024	0.035313	9.794910	0.990289	0.138766	-0.008473	-0.138745	0.990324	0.003027	0.008811	-0.001822	0.999960	
6177														0.106580	-0.014738	9.842791	0.990290	0.138761	-0.008464	-0.138739	0.990324	0.003058	0.008806	-0.001854	0.999960	
6178														0.082848	0.011002	9.720884	0.990287	0.138783	-0.008426	-0.138761	0.990321	0.003069	0.008771	-0.001869	0.999960	
6179														0.082499	-0.014653	9.769232	0.990288	0.138777	-0.008404	-0.138756	0.990322	0.003082	0.008751	-0.001886	0.999960	
6180														0.082071	0.010154	9.745295	0.990286	0.138787	-0.008433	-0.138766	0.990321	0.003055	0.008776	-0.001855	0.999960	
6181														0.057614	-0.015879	9.793296	0.990287	0.138781	-0.008413	-0.138760	0.990321	0.003053	0.008755	-0.001856	0.999960	
6182														0.081889	-0.040710	9.841986	0.990289	0.138771	-0.008423	-0.138750	0.990323	0.003055	0.008766	-0.001856	0.999960	
6183														0.083570	-0.063819	9.768293	0.990291	0.138750	-0.008434	-0.138729	0.990326	0.003057	0.008776	-0.001857	0.999960	
6184														0.107032	-0.039368	9.793514	0.990290	0.138759	-0.008460	-0.138737	0.990324	0.003061	0.008803	-0.001858	0.999960	
6185														0.106957	-0.039440	9.793515	0.990289	0.138768	-0.008441	-0.138747	0.990323	0.003044	0.008782	-0.001843	0.999960	
6186														0.081818	-0.041227	9.841984	0.990289	0.138766	-0.008464	-0.138745	0.990323	0.003063	0.008807	-0.001859	0.999959	
6187														0.105790	-0.015813	9.818394	0.990286	0.138790	-0.008446	-0.138769	0.990320	0.003046	0.008787	-0.001844	0.999960	
6188														0.080992	0.008646	9.769710	0.990284	0.138809	-0.008407	-0.138787	0.990317	0.003073	0.008752	-0.001876	0.999960	
6189														0.080101	0.007533	9.818526	0.990284	0.138803	-0.008421	-0.138782	0.990318	0.003044	0.008762	-0.001846	0.999960	
6190														0.055956	0.007335	9.793772	0.990281	0.138823	-0.008415	-0.138802	0.990315	0.003044	0.008757	-0.001847	0.999960	
6191														0.032219	0.007546	9.744611	0.990282	0.138818	-0.008443	-0.138797	0.990316	0.003033	0.008782	-0.001832	0.999960	
6192														0.056792	-0.017206	9.793299	0.990279	0.138835	-0.008467	-0.138814	0.990314	0.003037	0.008807	-0.001832	0.999960	
6193														0.081086	-0.017148	9.818050	0.990280	0.138830	-0.008508	-0.138809	0.990315	0.003043	0.008848	-0.001832	0.999959	
6194														0.105639	-0.016611	9.818394	0.990282	0.138814	-0.008518	-0.138793	0.990317	0.003045	0.008858	-0.001833	0.999959	
6195														0.106589	-0.040678	9.793514	0.990285	0.138794	-0.008513	-0.138772	0.990320	0.003045	0.008853	-0.001834	0.999959	
6196														0.130103	-0.041185	9.842676	0.990282	0.138817	-0.008491	-0.138795	0.990316	0.003058	0.008833	-0.001850	0.999959	
6197														0.130904	-0.065248	9.817796	0.990283	0.138811	-0.008488	-0.138790	0.990317	0.003043	0.008828	-0.001835	0.999959	
6198														0.081518	-0.041884	9.793171	0.990282	0.138814	-0.008466	-0.138793	0.990317	0.003056	0.008808	-0.001852	0.999959	
6199														0.081221	-0.042109	9.793173	0.990281	0.138824	-0.008445	-0.138802	0.990315	0.003054	0.008788	-0.001852	0.999960	
6200														0.055492	-0.019032	9.817709	0.990278	0.138849	-0.008425	-0.138827	0.990312	0.003053	0.008767	-0.001854	0.999960	
6201														0.079745	-0.018421	9.818059	0.990283	0.138813	-0.008437	-0.138792	0.990317	0.003040	0.008778	-0.001839	0.999960	
6202														0.054761	0.005627	9.793780	0.990280	0.138835	-0.008400	-0.138814	0.990314	0.003051	0.008742	-0.001855	0.999960	
6203														0.102930	0.006290	9.818890	0.990283	0.138814	-0.008395	-0.138793	0.990317	0.003051	0.008737	-0.001856	0.999960	
6204														0.079054	0.006428	9.769727	0.990280	0.138833	-0.008390	-0.138812	0.990314	0.003051	0.008732	-0.001857	0.999960	
6205														0.079411	-0.018532	9.793656	0.990283	0.138812	-0.008417	-0.138791	0.990317	0.003040	0.008757	-0.001842	0.999960	
6206														0.103813	-0.017917	9.794007	0.990283	0.138811	-0.008413	-0.138790	0.990317	0.003040	0.008754	-0.001843	0.999960	
6207														0.079622	-0.043643	9.817585	0.990286	0.138791	-0.008408	-0.138770	0.990320	0.003040	0.008749	-0.001844	0.999960	
6208														0.103780	-0.017727	9.769604	0.990281	0.138826	-0.008388	-0.138805	0.990315	0.003039	0.008728	-0.001845	0.999960	
6209														0.055109	-0.044067	9.792829	0.990280	0.138835	-0.008384	-0.138814	0.990314	0.003023	0.008723	-0.001830	0.999960	
6210														0.079513	-0.043525	9.793181	0.990284	0.138805	-0.008408	-0.138784	0.990318	0.003043	0.008749	-0.001846	0.999960	
6211														0.078552	-0.019761	9.818066	0.990280	0.138830	-0.008420	-0.138809	0.990315	0.003029	0.008759	-0.001831	0.999960	
6212														0.103218	-0.018799	9.794012	0.990278	0.138849	-0.008411	-0.138828	0.990312	0.003060	0.008755	-0.001862	0.999960	
6213														0.103219	-0.019020	9.794011	0.990278	0.138844	-0.008438	-0.138823	0.990313	0.003049	0.008780	-0.001847	0.999960	
6214														0.102180	0.004890	9.818899	0.990280	0.138829	-0.008435	-0.138808	0.990315	0.003034	0.008775	-0.001833	0.999960	
6215														0.077968	0.004612	9.794141	0.990281	0.138824	-0.008430	-0.138803	0.990315	0.003034	0.008770	-0.001834	0.999960	
6216														0.102508	-0.019810	9.818422	0.990282	0.138820	-0.008409	-0.138799	0.990316	0.003047	0.008750	-0.001850	0.999960	
6217														0.103041	-0.019052	9.769609	0.990285	0.138799	-0.008419	-0.138778	0.990319	0.003049	0.008761	-0.001851	0.999960	
6218														0.053749	-0.021080	9.793308	0.990284	0.138808	-0.008399	-0.138787	0.990318	0.003047	0.008741	-0.001852	0.999960	
6219														0.078361	-0.045352	9.817588	0.990284	0.138802	-0.008411	-0.138781	0.990318	0.003034	0.008751	-0.001837	0.999960	
6220														0.077927	-0.020682	9.793664	0.990281	0.138830	-0.008402	-0.138809	0.990314	0.003065	0.008746	-0.001868	0.999960	
6221														0.077513	-0.021397	9.818071	0.990281	0.138824	-0.008414	-0.138803	0.990315	0.003051	0.008756	-0.001854	0.999960	
6222														0.101626	0.004121	9.794502	0.990278	0.138844	-0.008440	-0.138822	0.990313	0.003055	0.008783	-0.001854	0.999960	
6223														0.102767	-0.045314	9.817940	0.990277	0.138853	-0.008450	-0.138832	0.990311	0.003057	0.008793	-0.001854	0.999960	
6224														0.101359	0.003338	9.818908	0.990277	0.138849	-0.008461	-0.138827	0.990312	0.003059	0.008804	-0.001855	0.999960	
6225														0.076958	0.002493	9.818553	0.990278	0.138843	-0.008471	-0.138822	0.990313	0.003061	0.008814	-0.001855	0.999959	
6226														0.102405	-0.020859	9.794016	0.990276	0.138860	-0.008481	-0.138839	0.990310	0.003063	0.008824	-0.001856	0.999959	
6227														0.077780	-0.021705	9.793663	0.990275	0.138870	-0.008446	-0.138848	0.990309	0.003059	0.008789	-0.001857	0.999960	
6228														0.077407	-0.021932	9.793665	0.990275	0.138872	-0.008424	-0.138850	0.990309	0.003073	0.008769	-0.001873	0.999960	
6229														0.052152	0.001543	9.793796	0.990275	0.138866	-0.008434	-0.138845	0.990309	0.003075	0.008779	-0.001874	0.999960	
6230														0.101318	-0.022024	9.818429	0.990272	0.138887	-0.008446	-0.138865	0.990307	0.003062	0.008789	-0.001859	0.999960	
6231														0.101243	-0.022096	9.818430	0.990273	0.138881	-0.008441	-0.138860	0.990307	0.003062	0.008784	-0.001860	0.999960	
6232														0.076767	-0.022945	9.818073	0.990274	0.138873	-0.008451	-0.138851	0.990308	0.003063	0.008794	-0.001860	0.999960	
6233														0.101092	-0.022315	9.818431	0.990271	0.138897	-0.008447	-0.138876	0.990305	0.003048	0.008789	-0.001845	0.999960	
6234														0.125491	-0.021607	9.818788	0.990271	0.138897	-0.008474	-0.138875	0.990305	0.003037	0.008814	-0.001830	0.999959	
6235														0.076882	-0.022588	9.793668	0.990270	0.138906	-0.008439	-0.138885	0.990304	0.003033	0.008778	-0.001831	0.999960	
6236														0.052159	0.001954	9.744986	0.990268	0.138915	-0.008434	-0.138894	0.990303	0.003033	0.008773	-0.001832	0.999960	
6237														0.027071	-0.000044	9.793441	0.990269	0.138910	-0.008455	-0.138889	0.990303	0.003067	0.008799	-0.001863	0.999960	
6238														0.099882	-0.024125	9.867247	0.990269	0.138909	-0.008435	-0.138888	0.990303	0.003065	0.008779	-0.001864	0.999960	
6239														0.101849	0.004275	9.672486	0.990268	0.138919	-0.008464	-0.138898	0.990302	0.003038	0.008804	-0.001833	0.999960	
6240														0.098425	-0.026119	9.964874	0.990268	0.138918	-0.008459	-0.138896	0.990302	0.003039	0.008799	-0.001834	0.999960	
6241														0.077666	-0.021471	9.696044	0.990264	0.138942	-0.008454	-0.138921	0.990299	0.003038	0.008794	-0.001834	0.999960	
6242														0.100536	-0.022837	9.794031	0.990264	0.138949	-0.008451	-0.138928	0.990298	0.003024	0.008789	-0.001820	0.999960	
6243														0.124198	-0.048682	9.891527	0.990268	0.138913	-0.008459	-0.138892	0.990303	0.003041	0.008800	-0.001836	0.999960	
6244														0.078361	-0.045885	9.671148	0.990264	0.138947	-0.008437	-0.138926	0.990298	0.003054	0.008780	-0.001852	0.999960	
6245														0.099205	-0.024939	9.867252	0.990267	0.138926	-0.008464	-0.138905	0.990301	0.003043	0.008805	-0.001838	0.999960	
6246														0.076829	-0.048038	9.768775	0.990266	0.138928	-0.008447	-0.138907	0.990301	0.003026	0.008785	-0.001823	0.999960	
6247														0.075270	-0.024717	9.818080	0.990265	0.138937	-0.008457	-0.138916	0.990299	0.003028	0.008795	-0.001824	0.999960	
6248														0.074825	0.000036	9.794166	0.990266	0.138930	-0.008452	-0.138909	0.990301	0.003028	0.008791	-0.001824	0.999960	
6249														0.075444	0.000895	9.745354	0.990265	0.138940	-0.008462	-0.138919	0.990299	0.003030	0.008801	-0.001825	0.999960	
6250														0.074134	-0.001340	9.842979	0.990268	0.138914	-0.008486	-0.138893	0.990303	0.003049	0.008827	-0.001841	0.999959	
6251														0.099603	-0.024748	9.818440	0.990267	0.138924	-0.008481	-0.138902	0.990301	0.003049	0.008822	-0.001842	0.999959	
6252														0.124276	-0.023751	9.794396	0.990262	0.138956	-0.008489	-0.138935	0.990297	0.003066	0.008833	-0.001857	0.999959	
6253														0.075473	-0.025244	9.793672	0.990263	0.138950	-0.008503	-0.138929	0.990298	0.003038	0.008842	-0.001827	0.999959	
6254														0.099873	-0.024531	9.794034	0.990264	0.138938	-0.008513	-0.138917	0.990299	0.003040	0.008853	-0.001828	0.999959	
6255														0.074975	-0.025749	9.818080	0.990266	0.138932	-0.008497	-0.138911	0.990300	0.003008	0.008833	-0.001799	0.999959	
6256														0.100566	-0.048426	9.769137	0.990266	0.138931	-0.008493	-0.138910	0.990300	0.003008	0.008828	-0.001799	0.999959	
6257														0.074946	-0.025245	9.793676	0.990267	0.138924	-0.008492	-0.138904	0.990301	0.002978	0.008823	-0.001770	0.999960	
6258														0.074870	-0.025243	9.793677	0.990263	0.138953	-0.008502	-0.138932	0.990297	0.002981	0.008833	-0.001770	0.999959	
6259														0.099123	-0.024752	9.794041	0.990264	0.138947	-0.008479	-0.138926	0.990298	0.002994	0.008813	-0.001787	0.999960	
6260														0.097904	-0.001155	9.818944	0.990260	0.138972	-0.008488	-0.138951	0.990295	0.003011	0.008824	-0.001802	0.999959	
6261														0.099250	-0.024688	9.769636	0.990263	0.138951	-0.008485	-0.138930	0.990298	0.002996	0.008819	-0.001788	0.999960	
6262														0.073629	-0.001662	9.794175	0.990264	0.138945	-0.008479	-0.138924	0.990298	0.003011	0.008815	-0.001804	0.999960	
6263														0.097881	-0.001167	9.794541	0.990260	0.138970	-0.008473	-0.138949	0.990295	0.003011	0.008810	-0.001804	0.999960	
6264														0.073331	-0.002106	9.794177	0.990262	0.138959	-0.008466	-0.138938	0.990297	0.003025	0.008805	-0.001820	0.999960	
6265														0.050383	-0.051844	9.792816	0.990265	0.138938	-0.008492	-0.138917	0.990299	0.003029	0.008830	-0.001820	0.999959	
6266														0.098385	-0.026158	9.794045	0.990264	0.138942	-0.008471	-0.138921	0.990299	0.003027	0.008809	-0.001821	0.999960	
6267														0.073760	-0.027024	9.793681	0.990263	0.138951	-0.008465	-0.138930	0.990298	0.003027	0.008804	-0.001821	0.999960	
6268														0.097212	-0.002131	9.794548	0.990264	0.138945	-0.008444	-0.138924	0.990298	0.003040	0.008784	-0.001837	0.999960	
6269														0.097789	-0.026603	9.794049	0.990265	0.138939	-0.008457	-0.138918	0.990299	0.003012	0.008794	-0.001807	0.999960	
6270														0.121110	-0.001994	9.819322	0.990267	0.138921	-0.008468	-0.138900	0.990302	0.003014	0.008805	-0.001808	0.999960	
6271														0.097791	-0.026752	9.794049	0.990270	0.138900	-0.008478	-0.138879	0.990305	0.003016	0.008815	-0.001809	0.999960	
6272														0.096939	-0.027998	9.842862	0.990267	0.138921	-0.008456	-0.138899	0.990302	0.003029	0.008795	-0.001825	0.999960	
6273														0.073020	-0.027919	9.793684	0.990266	0.138930	-0.008451	-0.138909	0.990301	0.003029	0.008790	-0.001826	0.999960	
6274														0.095910	-0.003969	9.843366	0.990266	0.138933	-0.008461	-0.138912	0.990300	0.003030	0.008799	-0.001826	0.999960	
6275														0.073451	-0.052614	9.793183	0.990269	0.138912	-0.008425	-0.138891	0.990303	0.003027	0.008764	-0.001827	0.999960	
6276														0.071995	-0.028955	9.818093	0.990264	0.138949	-0.008402	-0.138928	0.990298	0.003040	0.008743	-0.001843	0.999960	
6277														0.072127	-0.028665	9.793688	0.990265	0.138944	-0.008397	-0.138923	0.990299	0.003040	0.008738	-0.001844	0.999960	
6278														0.073065	-0.052697	9.768780	0.990262	0.138960	-0.008392	-0.138939	0.990296	0.003040	0.008733	-0.001845	0.999960	
6279														0.071098	-0.004639	9.794193	0.990263	0.138954	-0.008385	-0.138933	0.990297	0.003056	0.008728	-0.001861	0.999960	
6280														0.095728	-0.029126	9.818467	0.990261	0.138969	-0.008378	-0.138948	0.990295	0.003071	0.008723	-0.001878	0.999960	
6281														0.071311	-0.004719	9.769788	0.990264	0.138949	-0.008401	-0.138927	0.990298	0.003091	0.008749	-0.001893	0.999960	
6282														0.094850	-0.005175	9.818972	0.990259	0.138983	-0.008368	-0.138961	0.990293	0.003072	0.008714	-0.001879	0.999960	
6283														0.047345	-0.030065	9.768912	0.990262	0.138962	-0.008394	-0.138941	0.990296	0.003076	0.008740	-0.001880	0.999960	
6284														0.095643	-0.029428	9.794063	0.990260	0.138980	-0.008355	-0.138958	0.990293	0.003102	0.008705	-0.001911	0.999960	
6285														0.070004	-0.006573	9.818603	0.990261	0.138974	-0.008380	-0.138953	0.990294	0.003106	0.008730	-0.001912	0.999960	
6286														0.095553	-0.004437	9.745758	0.990263	0.138956	-0.008390	-0.138935	0.990297	0.003108	0.008741	-0.001912	0.999960	
6287														0.095217	-0.030539	9.818467	0.990264	0.138951	-0.008400	-0.138929	0.990297	0.003110	0.008751	-0.001913	0.999960	
6288														0.119166	-0.005043	9.794943	0.990265	0.138942	-0.008396	-0.138920	0.990299	0.003110	0.008747	-0.001914	0.999960	
6289														0.095655	-0.055233	9.817961	0.990262	0.138966	-0.008376	-0.138945	0.990295	0.003108	0.008726	-0.001914	0.999960	
6290														0.094620	-0.030986	9.818472	0.990264	0.138948	-0.008356	-0.138927	0.990298	0.003106	0.008706	-0.001915	0.999960	
6291														0.070505	-0.031344	9.793692	0.990263	0.138958	-0.008381	-0.138936	0.990296	0.003110	0.008732	-0.001915	0.999960	
6292														0.095117	-0.030389	9.769661	0.990260	0.138982	-0.008341	-0.138961	0.990293	0.003137	0.008697	-0.001947	0.999960	
6293														0.093435	-0.007182	9.818985	0.990258	0.138991	-0.008355	-0.138970	0.990292	0.003109	0.008706	-0.001917	0.999960	
6294														0.070493	-0.031338	9.769287	0.990258	0.138995	-0.008363	-0.138974	0.990291	0.003126	0.008717	-0.001933	0.999960	
6295														0.093721	-0.006954	9.794579	0.990259	0.138990	-0.008358	-0.138968	0.990292	0.003126	0.008712	-0.001934	0.999960	
6296														0.069171	-0.007834	9.794205	0.990257	0.139001	-0.008353	-0.138979	0.990290	0.003126	0.008707	-0.001934	0.999960	
6297														0.093137	-0.007845	9.818987	0.990256	0.139011	-0.008361	-0.138989	0.990289	0.003143	0.008717	-0.001950	0.999960	
6298														0.093572	-0.007467	9.794580	0.990255	0.139011	-0.008389	-0.138989	0.990289	0.003132	0.008743	-0.001935	0.999960	
6299														0.094028	-0.032531	9.818472	0.990252	0.139036	-0.008397	-0.139014	0.990285	0.003148	0.008753	-0.001951	0.999960	
6300														0.093954	-0.032751	9.818472	0.990248	0.139060	-0.008391	-0.139038	0.990282	0.003149	0.008747	-0.001951	0.999960	
6301														0.069308	-0.008190	9.769800	0.990252	0.139039	-0.008371	-0.139017	0.990285	0.003147	0.008727	-0.001953	0.999960	
6302														0.093145	-0.033577	9.842881	0.990250	0.139047	-0.008366	-0.139025	0.990284	0.003147	0.008722	-0.001953	0.999960	
6303														0.069393	-0.033409	9.793693	0.990249	0.139057	-0.008376	-0.139035	0.990282	0.003149	0.008732	-0.001953	0.999960	
6304														0.093049	-0.008421	9.794585	0.990249	0.139059	-0.008386	-0.139037	0.990282	0.003151	0.008742	-0.001954	0.999960	
6305														0.093359	-0.033492	9.818476	0.990249	0.139054	-0.008381	-0.139032	0.990283	0.003151	0.008737	-0.001955	0.999960	
6306														0.068938	-0.009001	9.769802	0.990250	0.139049	-0.008404	-0.139026	0.990284	0.003170	0.008764	-0.001970	0.999960	
6307														0.117228	-0.008274	9.794964	0.990249	0.139058	-0.008369	-0.139036	0.990282	0.003166	0.008728	-0.001971	0.999960	
6308														0.092753	-0.009232	9.794587	0.990245	0.139082	-0.008407	-0.139059	0.990279	0.003186	0.008769	-0.001986	0.999960	
6309														0.092850	-0.034754	9.842880	0.990246	0.139076	-0.008406	-0.139054	0.990280	0.003156	0.008763	-0.001956	0.999960	
6310														0.092675	-0.009300	9.794587	0.990246	0.139079	-0.008400	-0.139057	0.990279	0.003156	0.008758	-0.001957	0.999960	
6311														0.092526	-0.009448	9.794589	0.990244	0.139089	-0.008395	-0.139067	0.990278	0.003156	0.008753	-0.001958	0.999960	
6312														0.068053	-0.010413	9.794210	0.990246	0.139074	-0.008403	-0.139052	0.990280	0.003174	0.008763	-0.001974	0.999960	
6313														0.092458	-0.010043	9.794589	0.990247	0.139069	-0.008410	-0.139046	0.990281	0.003206	0.008774	-0.002005	0.999960	
6314														0.091734	-0.011253	9.843400	0.990248	0.139058	-0.008424	-0.139035	0.990282	0.003178	0.008784	-0.001976	0.999959	
6315														0.068736	-0.035479	9.793690	0.990247	0.139068	-0.008415	-0.139045	0.990281	0.003208	0.008779	-0.002007	0.999959	
6316														0.117024	-0.034674	9.818855	0.990249	0.139054	-0.008414	-0.139031	0.990283	0.003178	0.008774	-0.001977	0.999960	
6317														0.091723	-0.011095	9.818997	0.990248	0.139063	-0.008407	-0.139041	0.990281	0.003193	0.008769	-0.001993	0.999960	
6318														0.092980	-0.034650	9.769667	0.990245	0.139084	-0.008386	-0.139062	0.990279	0.003192	0.008749	-0.001994	0.999960	
6319														0.091714	-0.010934	9.794595	0.990246	0.139079	-0.008396	-0.139056	0.990279	0.003194	0.008759	-0.001995	0.999960	
6320														0.092102	-0.036008	9.818479	0.990241	0.139113	-0.008406	-0.139090	0.990275	0.003196	0.008769	-0.001995	0.999960	
6321														0.091640	-0.011300	9.794595	0.990244	0.139092	-0.008399	-0.139070	0.990277	0.003211	0.008764	-0.002012	0.999960	
6322														0.067846	-0.036591	9.793692	0.990240	0.139120	-0.008396	-0.139098	0.990273	0.003196	0.008759	-0.001997	0.999960	
6323														0.092242	-0.035766	9.794074	0.990243	0.139099	-0.008425	-0.139077	0.990276	0.003169	0.008784	-0.001967	0.999959	
6324														0.091338	-0.011371	9.794598	0.990245	0.139088	-0.008390	-0.139065	0.990278	0.003166	0.008749	-0.001968	0.999960	
6325														0.115881	-0.010242	9.770577	0.990245	0.139082	-0.008400	-0.139060	0.990279	0.003168	0.008759	-0.001969	0.999960	
6326														0.090309	-0.012740	9.843411	0.990245	0.139083	-0.008396	-0.139060	0.990279	0.003168	0.008755	-0.001970	0.999960	
6327														0.090526	-0.012355	9.819007	0.990246	0.139077	-0.008391	-0.139055	0.990280	0.003168	0.008750	-0.001971	0.999960	
6328														0.090820	-0.012042	9.794602	0.990243	0.139096	-0.008399	-0.139074	0.990277	0.003185	0.008760	-0.001986	0.999960	
6329														0.116053	-0.035911	9.794459	0.990246	0.139076	-0.008424	-0.139053	0.990280	0.003189	0.008786	-0.001987	0.999959	
6330														0.091262	-0.011797	9.770195	0.990241	0.139110	-0.008421	-0.139088	0.990275	0.003174	0.008780	-0.001972	0.999960	
6331														0.066733	-0.037938	9.818100	0.990240	0.139119	-0.008419	-0.139097	0.990274	0.003144	0.008775	-0.001942	0.999960	
6332														0.090148	-0.012865	9.819010	0.990240	0.139119	-0.008397	-0.139097	0.990274	0.003157	0.008755	-0.001959	0.999960	
6333														0.090758	-0.037410	9.818486	0.990239	0.139128	-0.008409	-0.139106	0.990273	0.003144	0.008764	-0.001944	0.999960	
6334														0.115451	-0.036269	9.794465	0.990237	0.139140	-0.008402	-0.139118	0.990271	0.003160	0.008759	-0.001960	0.999960	
6335														0.090510	-0.012234	9.770202	0.990234	0.139164	-0.008398	-0.139142	0.990267	0.003144	0.008754	-0.001945	0.999960	
6336														0.090752	-0.037239	9.794083	0.990235	0.139154	-0.008393	-0.139132	0.990269	0.003144	0.008749	-0.001946	0.999960	
6337														0.089843	-0.013067	9.794609	0.990236	0.139148	-0.008387	-0.139126	0.990270	0.003159	0.008745	-0.001962	0.999960	
6338														0.113945	-0.012611	9.794998	0.990231	0.139185	-0.008349	-0.139163	0.990264	0.003171	0.008709	-0.001978	0.999960	
6339														0.089396	-0.013439	9.794613	0.990234	0.139165	-0.008378	-0.139143	0.990267	0.003145	0.008735	-0.001948	0.999960	
6340														0.065072	-0.014266	9.794226	0.990234	0.139163	-0.008387	-0.139141	0.990267	0.003162	0.008746	-0.001964	0.999960	
6341														0.090086	-0.038057	9.794086	0.990235	0.139157	-0.008369	-0.139135	0.990268	0.003145	0.008725	-0.001950	0.999960	
6342														0.088801	-0.014200	9.819020	0.990233	0.139168	-0.008382	-0.139147	0.990267	0.003132	0.008736	-0.001936	0.999960	
6343														0.089936	-0.038130	9.794087	0.990236	0.139148	-0.008392	-0.139126	0.990270	0.003135	0.008746	-0.001936	0.999960	
6344														0.089173	-0.013882	9.794614	0.990236	0.139149	-0.008402	-0.139127	0.990270	0.003137	0.008757	-0.001937	0.999960	
6345														0.089174	-0.014029	9.794614	0.990236	0.139144	-0.008412	-0.139122	0.990270	0.003139	0.008767	-0.001938	0.999960	
6346														0.089343	-0.039039	9.818492	0.990233	0.139171	-0.008379	-0.139150	0.990266	0.003119	0.008731	-0.001923	0.999960	
6347														0.113124	-0.013495	9.795007	0.990238	0.139136	-0.008387	-0.139114	0.990271	0.003137	0.008742	-0.001939	0.999960	
6348														0.065093	-0.039554	9.793699	0.990233	0.139167	-0.008399	-0.139145	0.990267	0.003123	0.008751	-0.001924	0.999960	
6349														0.089097	-0.014002	9.770212	0.990234	0.139161	-0.008407	-0.139140	0.990268	0.003141	0.008762	-0.001940	0.999960	
6350														0.064648	-0.040390	9.818104	0.990235	0.139156	-0.008403	-0.139134	0.990269	0.003125	0.008757	-0.001926	0.999960	
6351														0.088502	-0.014839	9.794619	0.990231	0.139181	-0.008396	-0.139159	0.990265	0.003140	0.008752	-0.001941	0.999960	
6352														0.088428	-0.015059	9.794619	0.990231	0.139183	-0.008407	-0.139161	0.990265	0.003142	0.008762	-0.001942	0.999960	
6353														0.087959	0.009583	9.770747	0.990232	0.139178	-0.008398	-0.139155	0.990265	0.003173	0.008758	-0.001973	0.999960	
6354														0.087909	-0.016048	9.819025	0.990230	0.139191	-0.008412	-0.139169	0.990264	0.003144	0.008768	-0.001943	0.999960	
6355														0.087809	0.009292	9.770748	0.990229	0.139201	-0.008403	-0.139178	0.990262	0.003175	0.008763	-0.001974	0.999960	
6356														0.088977	-0.040190	9.794087	0.990225	0.139224	-0.008432	-0.139202	0.990259	0.003149	0.008788	-0.001944	0.999959	
6357														0.087832	-0.016410	9.819025	0.990226	0.139219	-0.008425	-0.139197	0.990260	0.003164	0.008783	-0.001960	0.999960	
6358														0.088456	-0.041031	9.818492	0.990227	0.139212	-0.008420	-0.139189	0.990261	0.003164	0.008778	-0.001961	0.999960	
6359														0.063212	-0.017548	9.818636	0.990230	0.139191	-0.008430	-0.139169	0.990264	0.003166	0.008789	-0.001962	0.999959	
6360														0.088982	-0.040162	9.769683	0.990229	0.139197	-0.008412	-0.139175	0.990263	0.003148	0.008768	-0.001947	0.999960	
6361														0.086459	0.007539	9.819564	0.990226	0.139221	-0.008408	-0.139199	0.990259	0.003133	0.008762	-0.001932	0.999960	
6362														0.087534	-0.016532	9.794625	0.990228	0.139207	-0.008415	-0.139185	0.990261	0.003165	0.008773	-0.001963	0.999960	
6363														0.087611	-0.016680	9.794624	0.990230	0.139186	-0.008444	-0.139164	0.990264	0.003139	0.008798	-0.001933	0.999959	
6364														0.087859	-0.041621	9.818495	0.990226	0.139221	-0.008408	-0.139200	0.990259	0.003135	0.008763	-0.001934	0.999960	
6365														0.062059	0.006803	9.794770	0.990228	0.139201	-0.008419	-0.139179	0.990262	0.003137	0.008773	-0.001934	0.999960	
6366														0.087161	-0.016975	9.794628	0.990227	0.139209	-0.008414	-0.139187	0.990261	0.003137	0.008769	-0.001936	0.999960	
6367														0.086634	-0.017597	9.819034	0.990226	0.139218	-0.008411	-0.139196	0.990260	0.003122	0.008763	-0.001921	0.999960	
6368														0.086559	-0.017669	9.819034	0.990225	0.139223	-0.008421	-0.139201	0.990259	0.003124	0.008774	-0.001922	0.999960	
6369														0.087712	-0.041587	9.794093	0.990224	0.139232	-0.008433	-0.139210	0.990258	0.003111	0.008784	-0.001907	0.999960	
6370														0.086859	-0.017338	9.794630	0.990226	0.139220	-0.008427	-0.139198	0.990260	0.003126	0.008780	-0.001922	0.999960	
6371														0.062718	-0.043429	9.818104	0.990229	0.139199	-0.008418	-0.139177	0.990262	0.003156	0.008775	-0.001954	0.999960	
6372														0.087570	-0.042328	9.794091	0.990225	0.139225	-0.008460	-0.139202	0.990259	0.003147	0.008815	-0.001938	0.999959	
6373														0.111264	-0.017231	9.795022	0.990228	0.139204	-0.008455	-0.139182	0.990262	0.003147	0.008811	-0.001939	0.999959	
6374														0.112272	-0.041224	9.770080	0.990224	0.139233	-0.008449	-0.139211	0.990258	0.003147	0.008805	-0.001940	0.999959	
6375														0.086190	-0.018850	9.819035	0.990222	0.139242	-0.008444	-0.139220	0.990256	0.003147	0.008800	-0.001941	0.999959	
6376														0.110035	0.006649	9.795566	0.990220	0.139259	-0.008437	-0.139237	0.990254	0.003163	0.008795	-0.001957	0.999959	
6377														0.087430	-0.042586	9.769687	0.990221	0.139253	-0.008432	-0.139231	0.990255	0.003163	0.008790	-0.001958	0.999959	
6378														0.085261	0.005653	9.795175	0.990219	0.139265	-0.008415	-0.139244	0.990253	0.003131	0.008769	-0.001928	0.999960	
6379														0.110218	-0.018116	9.795032	0.990218	0.139275	-0.008406	-0.139253	0.990252	0.003161	0.008765	-0.001959	0.999960	
6380														0.085367	-0.019666	9.819041	0.990219	0.139268	-0.008418	-0.139246	0.990253	0.003147	0.008774	-0.001944	0.999960	
6381														0.060893	-0.020515	9.818645	0.990220	0.139262	-0.008413	-0.139240	0.990254	0.003147	0.008769	-0.001945	0.999960	
6382														0.110300	-0.018003	9.770630	0.990217	0.139284	-0.008408	-0.139262	0.990251	0.003148	0.008764	-0.001946	0.999960	
6383														0.085066	-0.019961	9.819043	0.990217	0.139279	-0.008420	-0.139257	0.990251	0.003135	0.008774	-0.001931	0.999960	
6384														0.084991	-0.020034	9.819044	0.990218	0.139277	-0.008415	-0.139255	0.990252	0.003135	0.008769	-0.001932	0.999960	
6385														0.085221	-0.019554	9.794640	0.990219	0.139271	-0.008412	-0.139250	0.990252	0.003120	0.008764	-0.001918	0.999960	
6386														0.060824	-0.020479	9.794242	0.990219	0.139269	-0.008436	-0.139247	0.990253	0.003139	0.008791	-0.001933	0.999959	
6387														0.084821	0.004878	9.770778	0.990222	0.139249	-0.008427	-0.139226	0.990255	0.003169	0.008786	-0.001965	0.999959	
6388														0.109403	-0.019519	9.795039	0.990217	0.139281	-0.008408	-0.139259	0.990251	0.003152	0.008765	-0.001950	0.999960	
6389														0.109329	-0.019739	9.795039	0.990218	0.139276	-0.008430	-0.139254	0.990252	0.003186	0.008791	-0.001981	0.999959	
6390														0.084601	0.004140	9.770780	0.990218	0.139275	-0.008440	-0.139253	0.990252	0.003188	0.008802	-0.001982	0.999959	
6391														0.084173	-0.022077	9.843449	0.990216	0.139285	-0.008435	-0.139262	0.990250	0.003188	0.008796	-0.001982	0.999959	
6392														0.084554	-0.021665	9.819044	0.990216	0.139284	-0.008460	-0.139262	0.990250	0.003192	0.008822	-0.001983	0.999959	
6393														0.085011	-0.021325	9.794638	0.990215	0.139294	-0.008468	-0.139271	0.990249	0.003209	0.008832	-0.001998	0.999959	
6394														0.109029	-0.021175	9.819441	0.990217	0.139278	-0.008482	-0.139256	0.990251	0.003181	0.008842	-0.001969	0.999959	
6395														0.084477	-0.021881	9.819044	0.990214	0.139302	-0.008463	-0.139280	0.990248	0.003164	0.008821	-0.001954	0.999959	
6396														0.084710	-0.021471	9.794640	0.990217	0.139279	-0.008472	-0.139256	0.990251	0.003182	0.008832	-0.001971	0.999959	
6397														0.059375	0.001841	9.794789	0.990216	0.139288	-0.008450	-0.139266	0.990250	0.003195	0.008812	-0.001987	0.999959	
6398														0.108890	-0.021209	9.795041	0.990216	0.139286	-0.008476	-0.139264	0.990250	0.003199	0.008838	-0.001987	0.999959	
6399														0.107716	0.002478	9.819994	0.990217	0.139281	-0.008470	-0.139258	0.990251	0.003199	0.008833	-0.001988	0.999959	
6400														0.108742	-0.021505	9.795042	0.990216	0.139283	-0.008465	-0.139261	0.990251	0.003199	0.008828	-0.001989	0.999959	
6401														0.084729	-0.021948	9.770237	0.990217	0.139278	-0.008489	-0.139256	0.990251	0.003218	0.008854	-0.002004	0.999959	
6402														0.059416	-0.024006	9.818646	0.990211	0.139320	-0.008454	-0.139298	0.990245	0.003199	0.008817	-0.001990	0.999959	
6403														0.083510	-0.023144	9.819049	0.990210	0.139329	-0.008453	-0.139307	0.990244	0.003169	0.008812	-0.001961	0.999959	
6404														0.059419	-0.023441	9.794244	0.990210	0.139332	-0.008461	-0.139310	0.990244	0.003186	0.008822	-0.001977	0.999959	
6405														0.083331	0.002156	9.770792	0.990210	0.139326	-0.008458	-0.139304	0.990245	0.003171	0.008817	-0.001962	0.999959	
6406														0.083209	-0.023439	9.819051	0.990209	0.139339	-0.008452	-0.139317	0.990243	0.003171	0.008812	-0.001963	0.999959	
6407														0.083519	-0.023023	9.794647	0.990209	0.139333	-0.008462	-0.139311	0.990244	0.003173	0.008822	-0.001963	0.999959	
6408														0.083519	-0.023168	9.794647	0.990207	0.139348	-0.008473	-0.139326	0.990242	0.003175	0.008832	-0.001964	0.999959	
6409														0.083671	-0.023388	9.794645	0.990210	0.139328	-0.008511	-0.139305	0.990244	0.003196	0.008874	-0.001979	0.999959	
6410														0.108602	-0.022103	9.770641	0.990209	0.139334	-0.008525	-0.139312	0.990244	0.003167	0.008884	-0.001949	0.999959	
6411														0.058239	-0.000489	9.819198	0.990209	0.139329	-0.008534	-0.139306	0.990244	0.003184	0.008894	-0.001964	0.999959	
6412														0.083181	0.001208	9.770793	0.990208	0.139344	-0.008498	-0.139321	0.990242	0.003181	0.008858	-0.001966	0.999959	
6413														0.082339	-0.000072	9.819603	0.990210	0.139324	-0.008538	-0.139301	0.990245	0.003187	0.008899	-0.001966	0.999958	
6414														0.083675	-0.024048	9.794643	0.990211	0.139316	-0.008549	-0.139293	0.990246	0.003189	0.008910	-0.001967	0.999958	
6415														0.082416	-0.000367	9.819602	0.990208	0.139341	-0.008544	-0.139318	0.990243	0.003189	0.008905	-0.001967	0.999958	
6416														0.059545	-0.050094	9.818092	0.990205	0.139362	-0.008554	-0.139339	0.990240	0.003191	0.008915	-0.001968	0.999958	
6417														0.083449	-0.024484	9.794644	0.990201	0.139387	-0.008548	-0.139364	0.990236	0.003191	0.008910	-0.001968	0.999958	
6418														0.082914	-0.025124	9.819050	0.990201	0.139390	-0.008545	-0.139367	0.990236	0.003176	0.008904	-0.001954	0.999958	
6419														0.083537	-0.024213	9.770241	0.990204	0.139369	-0.008536	-0.139347	0.990238	0.003207	0.008900	-0.001986	0.999958	
6420														0.083156	-0.025078	9.794645	0.990202	0.139378	-0.008562	-0.139355	0.990237	0.003210	0.008926	-0.001985	0.999958	
6421														0.106600	-0.000110	9.795606	0.990201	0.139388	-0.008525	-0.139365	0.990236	0.003221	0.008891	-0.002002	0.999958	
6422														0.106376	-0.000332	9.795609	0.990199	0.139402	-0.008535	-0.139379	0.990234	0.003223	0.008901	-0.002002	0.999958	
6423														0.058387	-0.026465	9.794242	0.990200	0.139396	-0.008545	-0.139373	0.990235	0.003225	0.008911	-0.002003	0.999958	
6424														0.081592	-0.001991	9.819609	0.990197	0.139415	-0.008555	-0.139392	0.990232	0.003227	0.008922	-0.002003	0.999958	
6425														0.083828	-0.049784	9.769685	0.990196	0.139424	-0.008535	-0.139401	0.990231	0.003225	0.008901	-0.002004	0.999958	
6426														0.081753	-0.001642	9.795206	0.990201	0.139390	-0.008562	-0.139367	0.990236	0.003214	0.008926	-0.001989	0.999958	
6427														0.082564	-0.026259	9.794647	0.990199	0.139399	-0.008553	-0.139376	0.990234	0.003244	0.008921	-0.002021	0.999958	
6428														0.058092	-0.027277	9.794242	0.990195	0.139428	-0.008564	-0.139405	0.990230	0.003231	0.008931	-0.002005	0.999958	
6429														0.082489	-0.026549	9.794647	0.990198	0.139408	-0.008574	-0.139385	0.990233	0.003233	0.008941	-0.002006	0.999958	
6430														0.106816	-0.026048	9.795052	0.990199	0.139403	-0.008566	-0.139380	0.990234	0.003263	0.008937	-0.002037	0.999958	
6431														0.081150	-0.003325	9.819612	0.990197	0.139413	-0.008576	-0.139389	0.990232	0.003265	0.008947	-0.002038	0.999958	
6432														0.057487	-0.028667	9.818645	0.990197	0.139414	-0.008571	-0.139391	0.990232	0.003265	0.008942	-0.002039	0.999958	
6433														0.082584	-0.026717	9.770243	0.990200	0.139393	-0.008585	-0.139370	0.990235	0.003237	0.008952	-0.002009	0.999958	
6434														0.081237	-0.003047	9.795210	0.990197	0.139414	-0.008561	-0.139390	0.990232	0.003266	0.008933	-0.002041	0.999958	
6435														0.081091	-0.003272	9.795211	0.990202	0.139378	-0.008573	-0.139354	0.990237	0.003253	0.008943	-0.002026	0.999958	
6436														0.082605	-0.026592	9.745841	0.990204	0.139368	-0.008568	-0.139345	0.990239	0.003253	0.008938	-0.002028	0.999958	
6437														0.081217	-0.028469	9.819055	0.990200	0.139392	-0.008548	-0.139369	0.990235	0.003251	0.008917	-0.002028	0.999958	
6438														0.079864	-0.004724	9.844023	0.990200	0.139392	-0.008559	-0.139369	0.990235	0.003238	0.008927	-0.002014	0.999958	
6439														0.080958	-0.003143	9.770811	0.990201	0.139386	-0.008552	-0.139363	0.990236	0.003253	0.008922	-0.002030	0.999958	
6440														0.105241	-0.028110	9.819465	0.990199	0.139402	-0.008547	-0.139379	0.990234	0.003254	0.008917	-0.002030	0.999958	
6441														0.080735	-0.003512	9.770813	0.990200	0.139397	-0.008557	-0.139374	0.990234	0.003256	0.008928	-0.002031	0.999958	
6442														0.104982	-0.002709	9.771223	0.990202	0.139384	-0.008541	-0.139361	0.990236	0.003224	0.008907	-0.002002	0.999958	
6443														0.081178	-0.028060	9.770251	0.990205	0.139363	-0.008532	-0.139340	0.990239	0.003254	0.008902	-0.002034	0.999958	
6444														0.055505	-0.005421	9.794811	0.990201	0.139391	-0.008540	-0.139367	0.990235	0.003271	0.008913	-0.002049	0.999958	
6445														0.080292	-0.004181	9.770816	0.990201	0.139385	-0.008552	-0.139362	0.990236	0.003258	0.008923	-0.002034	0.999958	
6446														0.080325	-0.029805	9.819058	0.990200	0.139393	-0.008563	-0.139370	0.990235	0.003259	0.008933	-0.002034	0.999958	
6447														0.104147	-0.004171	9.795632	0.990199	0.139403	-0.008542	-0.139379	0.990234	0.003257	0.008913	-0.002035	0.999958	
6448														0.103998	-0.004392	9.795633	0.990196	0.139420	-0.008550	-0.139397	0.990231	0.003275	0.008923	-0.002051	0.999958	
6449														0.079529	-0.005498	9.795223	0.990199	0.139400	-0.008544	-0.139376	0.990234	0.003290	0.008919	-0.002067	0.999958	
6450														0.080590	-0.029458	9.770252	0.990195	0.139433	-0.008541	-0.139410	0.990229	0.003275	0.008914	-0.002052	0.999958	
6451														0.104202	-0.029884	9.819471	0.990197	0.139412	-0.008566	-0.139389	0.990232	0.003279	0.008940	-0.002053	0.999958	
6452														0.079880	-0.030765	9.819059	0.990198	0.139407	-0.008578	-0.139384	0.990233	0.003265	0.008949	-0.002038	0.999958	
6453														0.079305	-0.006013	9.795225	0.990197	0.139417	-0.008554	-0.139394	0.990232	0.003294	0.008929	-0.002069	0.999958	
6454														0.104374	-0.029819	9.795068	0.990173	0.139588	-0.008551	-0.139566	0.990208	0.003071	0.008896	-0.001848	0.999959	
6455														0.079548	-0.005723	9.770822	0.990171	0.139597	-0.008561	-0.139576	0.990207	0.003073	0.008906	-0.001848	0.999959	
6456														0.103552	-0.005641	9.795637	0.990171	0.139597	-0.008571	-0.139576	0.990207	0.003075	0.008916	-0.001848	0.999959	
6457														0.079826	-0.030920	9.794656	0.990170	0.139606	-0.008552	-0.139585	0.990205	0.003057	0.008895	-0.001834	0.999959	
6458														0.079207	-0.031504	9.819062	0.990169	0.139616	-0.008549	-0.139595	0.990204	0.003043	0.008890	-0.001819	0.999959	
6459														0.079524	-0.030919	9.794659	0.990169	0.139611	-0.008561	-0.139590	0.990205	0.003029	0.008900	-0.001805	0.999959	
6460														0.079204	-0.031426	9.819062	0.990172	0.139592	-0.008591	-0.139571	0.990207	0.003003	0.008926	-0.001774	0.999959	
6461														0.103917	-0.030025	9.795072	0.990169	0.139617	-0.008570	-0.139596	0.990204	0.003001	0.008905	-0.001775	0.999959	
6462														0.078472	-0.006594	9.795231	0.990169	0.139614	-0.008565	-0.139594	0.990204	0.003000	0.008900	-0.001775	0.999959	
6463														0.054036	-0.033045	9.843055	0.990170	0.139609	-0.008577	-0.139588	0.990205	0.002987	0.008910	-0.001760	0.999959	
6464														0.127940	-0.029502	9.795489	0.990168	0.139622	-0.008572	-0.139601	0.990203	0.002987	0.008905	-0.001761	0.999959	
6465														0.078565	-0.006302	9.770829	0.990166	0.139632	-0.008567	-0.139611	0.990202	0.002986	0.008900	-0.001761	0.999959	
6466														0.077774	-0.007544	9.819637	0.990166	0.139633	-0.008594	-0.139612	0.990202	0.002975	0.008925	-0.001746	0.999959	
6467														0.079242	-0.030843	9.770259	0.990169	0.139612	-0.008559	-0.139591	0.990205	0.002971	0.008890	-0.001747	0.999959	
6468														0.077366	0.017720	9.771404	0.990165	0.139645	-0.008567	-0.139624	0.990200	0.002988	0.008900	-0.001763	0.999959	
6469														0.078156	-0.032462	9.819067	0.990170	0.139609	-0.008562	-0.139589	0.990205	0.002988	0.008895	-0.001764	0.999959	
6470														0.076899	0.016762	9.795809	0.990170	0.139606	-0.008587	-0.139585	0.990206	0.002992	0.008921	-0.001764	0.999959	
6471														0.102555	-0.031866	9.819482	0.990171	0.139600	-0.008584	-0.139579	0.990206	0.002977	0.008915	-0.001749	0.999959	
6472														0.077253	-0.008289	9.819640	0.990169	0.139613	-0.008596	-0.139592	0.990205	0.002963	0.008925	-0.001734	0.999959	
6473														0.078875	-0.031654	9.770259	0.990172	0.139593	-0.008604	-0.139572	0.990207	0.002980	0.008936	-0.001750	0.999959	
6474														0.078479	-0.032314	9.794662	0.990170	0.139605	-0.008619	-0.139584	0.990206	0.002951	0.008946	-0.001719	0.999959	
6475														0.077499	-0.007994	9.795238	0.990171	0.139599	-0.008596	-0.139579	0.990207	0.002965	0.008926	-0.001736	0.999959	
6476														0.078181	-0.032537	9.794664	0.990170	0.139606	-0.008608	-0.139585	0.990206	0.002952	0.008936	-0.001721	0.999959	
6477														0.077709	-0.033199	9.819068	0.990171	0.139600	-0.008603	-0.139580	0.990206	0.002951	0.008931	-0.001722	0.999959	
6478														0.101450	-0.007622	9.795658	0.990172	0.139594	-0.008581	-0.139573	0.990207	0.002964	0.008911	-0.001738	0.999959	
6479														0.078930	-0.031218	9.721455	0.990172	0.139588	-0.008593	-0.139568	0.990208	0.002951	0.008921	-0.001723	0.999959	
6480														0.003500	0.014005	9.770160	0.990170	0.139603	-0.008652	-0.139582	0.990206	0.002928	0.008976	-0.001691	0.999958	
6481														0.146734	-0.011263	10.016125	0.990169	0.139612	-0.008618	-0.139591	0.990205	0.002909	0.008940	-0.001677	0.999959	
6482														0.102339	-0.006064	9.722450	0.990167	0.139624	-0.008595	-0.139604	0.990203	0.002937	0.008921	-0.001708	0.999959	
6483														0.102231	-0.032008	9.770682	0.990168	0.139619	-0.008603	-0.139599	0.990204	0.002954	0.008931	-0.001724	0.999959	
6484														0.101509	-0.033261	9.819488	0.990170	0.139603	-0.008632	-0.139582	0.990206	0.002927	0.008956	-0.001694	0.999958	
6485														0.077073	-0.008509	9.770839	0.990169	0.139612	-0.008627	-0.139592	0.990205	0.002927	0.008951	-0.001694	0.999959	
6486														0.099765	-0.035848	9.917104	0.990172	0.139591	-0.008621	-0.139570	0.990208	0.002942	0.008947	-0.001710	0.999959	
6487														0.078089	-0.032756	9.745859	0.990170	0.139601	-0.008631	-0.139580	0.990206	0.002944	0.008957	-0.001710	0.999958	
6488														0.075941	0.015367	9.771419	0.990169	0.139611	-0.008628	-0.139591	0.990205	0.002928	0.008952	-0.001695	0.999958	
6489														0.051354	-0.011035	9.819231	0.990166	0.139635	-0.008609	-0.139615	0.990202	0.002911	0.008931	-0.001680	0.999959	
6490														0.076548	-0.009095	9.770843	0.990168	0.139617	-0.008649	-0.139597	0.990204	0.002916	0.008972	-0.001680	0.999958	
6491														0.123819	-0.009954	9.869296	0.990166	0.139627	-0.008644	-0.139607	0.990203	0.002916	0.008967	-0.001680	0.999958	
6492														0.100944	-0.008484	9.771263	0.990165	0.139636	-0.008656	-0.139616	0.990201	0.002903	0.008976	-0.001666	0.999958	
6493														0.076000	-0.010055	9.795247	0.990166	0.139631	-0.008634	-0.139611	0.990202	0.002916	0.008956	-0.001682	0.999958	
6494														0.076140	-0.035266	9.819073	0.990162	0.139661	-0.008614	-0.139640	0.990198	0.002914	0.008937	-0.001683	0.999959	
6495														0.100713	-0.034062	9.795092	0.990158	0.139686	-0.008607	-0.139665	0.990194	0.002929	0.008932	-0.001698	0.999959	
6496														0.098481	0.013832	9.820658	0.990159	0.139683	-0.008600	-0.139663	0.990195	0.002944	0.008927	-0.001714	0.999959	
6497														0.076022	-0.035412	9.794671	0.990155	0.139708	-0.008595	-0.139687	0.990191	0.002943	0.008922	-0.001714	0.999959	
6498														0.075106	-0.011313	9.795253	0.990152	0.139735	-0.008601	-0.139714	0.990187	0.002976	0.008932	-0.001745	0.999959	
6499														0.051039	-0.011846	9.770427	0.990150	0.139745	-0.008595	-0.139724	0.990186	0.002976	0.008927	-0.001745	0.999959	
6500														0.098952	-0.011447	9.820080	0.990155	0.139712	-0.008608	-0.139691	0.990191	0.002963	0.008937	-0.001731	0.999959	
6501														0.100052	-0.035394	9.795094	0.990156	0.139707	-0.008586	-0.139686	0.990191	0.002976	0.008917	-0.001747	0.999959	
6502														0.098657	-0.011824	9.820082	0.990156	0.139702	-0.008596	-0.139681	0.990192	0.002977	0.008928	-0.001747	0.999959	
6503														0.098256	-0.012571	9.844486	0.990159	0.139682	-0.008606	-0.139661	0.990195	0.002979	0.008938	-0.001748	0.999959	
6504														0.099468	-0.010924	9.771275	0.990161	0.139664	-0.008617	-0.139643	0.990197	0.002981	0.008948	-0.001749	0.999958	
6505														0.075037	-0.037499	9.819074	0.990162	0.139659	-0.008612	-0.139638	0.990198	0.002981	0.008943	-0.001749	0.999958	
6506														0.074118	-0.013254	9.819659	0.990159	0.139678	-0.008621	-0.139657	0.990195	0.002983	0.008953	-0.001749	0.999958	
6507														0.100242	-0.035756	9.770689	0.990162	0.139658	-0.008646	-0.139637	0.990198	0.002987	0.008979	-0.001750	0.999958	
6508														0.100097	-0.036054	9.770690	0.990161	0.139666	-0.008607	-0.139645	0.990197	0.003012	0.008943	-0.001781	0.999958	
6509														0.075074	-0.037643	9.794670	0.990164	0.139645	-0.008621	-0.139624	0.990200	0.002984	0.008953	-0.001751	0.999958	
6510														0.074152	-0.013250	9.795258	0.990164	0.139647	-0.008615	-0.139626	0.990200	0.002984	0.008947	-0.001752	0.999958	
6511														0.098915	-0.037479	9.819499	0.990162	0.139656	-0.008627	-0.139635	0.990199	0.002970	0.008957	-0.001737	0.999958	
6512														0.098067	-0.013159	9.820087	0.990164	0.139644	-0.008637	-0.139624	0.990200	0.002973	0.008967	-0.001738	0.999958	
6513														0.073674	-0.014147	9.819661	0.990167	0.139624	-0.008647	-0.139603	0.990203	0.002974	0.008978	-0.001738	0.999958	
6514														0.073448	-0.014222	9.819663	0.990165	0.139638	-0.008613	-0.139617	0.990201	0.002954	0.008941	-0.001723	0.999959	
6515														0.097875	-0.012932	9.795689	0.990166	0.139632	-0.008591	-0.139612	0.990202	0.002968	0.008921	-0.001739	0.999959	
6516														0.072997	-0.014446	9.819666	0.990164	0.139644	-0.008620	-0.139623	0.990200	0.002941	0.008946	-0.001708	0.999959	
6517														0.097796	-0.013072	9.795689	0.990161	0.139669	-0.008613	-0.139648	0.990197	0.002955	0.008941	-0.001724	0.999959	
6518														0.073325	-0.014132	9.795263	0.990157	0.139692	-0.008622	-0.139672	0.990193	0.002957	0.008951	-0.001724	0.999958	
6519														0.073324	-0.014276	9.795263	0.990156	0.139702	-0.008632	-0.139681	0.990192	0.002959	0.008961	-0.001724	0.999958	
6520														0.097721	-0.013581	9.795689	0.990158	0.139684	-0.008642	-0.139663	0.990195	0.002961	0.008971	-0.001725	0.999958	
6521														0.098129	-0.013123	9.771286	0.990157	0.139693	-0.008652	-0.139673	0.990193	0.002962	0.008981	-0.001725	0.999958	
6522														0.073657	-0.014038	9.770859	0.990156	0.139701	-0.008649	-0.139680	0.990192	0.002948	0.008976	-0.001711	0.999958	
6523														0.097753	-0.013270	9.771290	0.990155	0.139710	-0.008614	-0.139690	0.990191	0.002944	0.008940	-0.001712	0.999959	
6524														0.073246	-0.039717	9.819078	0.990158	0.139685	-0.008643	-0.139664	0.990195	0.002917	0.008966	-0.001681	0.999958	
6525														0.072650	-0.014795	9.795267	0.990157	0.139694	-0.008605	-0.139674	0.990193	0.002928	0.008930	-0.001697	0.999959	
6526														0.095892	0.010217	9.796290	0.990158	0.139688	-0.008601	-0.139668	0.990194	0.002928	0.008925	-0.001698	0.999959	
6527														0.047474	-0.016621	9.819242	0.990159	0.139683	-0.008611	-0.139663	0.990195	0.002929	0.008935	-0.001698	0.999959	
6528														0.096265	-0.015002	9.820102	0.990160	0.139675	-0.008623	-0.139655	0.990196	0.002916	0.008946	-0.001683	0.999959	
6529														0.048291	-0.015553	9.770436	0.990160	0.139670	-0.008633	-0.139650	0.990197	0.002917	0.008956	-0.001683	0.999958	
6530														0.096674	-0.014613	9.795698	0.990160	0.139674	-0.008643	-0.139654	0.990196	0.002919	0.008966	-0.001683	0.999958	
6531														0.095630	-0.015976	9.844507	0.990159	0.139684	-0.008607	-0.139663	0.990195	0.002914	0.008930	-0.001684	0.999959	
6532														0.071905	-0.015758	9.795271	0.990160	0.139674	-0.008633	-0.139653	0.990196	0.002919	0.008956	-0.001684	0.999958	
6533														0.071907	-0.015980	9.795270	0.990159	0.139683	-0.008626	-0.139663	0.990195	0.002933	0.008951	-0.001700	0.999958	
6534														0.072544	-0.040670	9.794677	0.990155	0.139712	-0.008603	-0.139692	0.990191	0.002947	0.008930	-0.001717	0.999959	
6535														0.094661	0.008204	9.820702	0.990155	0.139712	-0.008603	-0.139692	0.990191	0.002947	0.008930	-0.001717	0.999959	
6536														0.071166	-0.042796	9.867886	0.990152	0.139731	-0.008612	-0.139710	0.990188	0.002964	0.008941	-0.001732	0.999959	
6537														0.073587	-0.013519	9.673257	0.990149	0.139755	-0.008627	-0.139734	0.990185	0.002920	0.008951	-0.001686	0.999959	
6538														0.093459	-0.019295	9.942122	0.990147	0.139768	-0.008637	-0.139748	0.990183	0.002922	0.008961	-0.001686	0.999958	
6539														0.074036	-0.038662	9.697065	0.990152	0.139733	-0.008646	-0.139712	0.990188	0.002939	0.008972	-0.001702	0.999958	
6540														0.118078	0.007255	9.869942	0.990143	0.139794	-0.008623	-0.139773	0.990179	0.002952	0.008951	-0.001718	0.999958	
6541														0.095217	-0.016986	9.820109	0.990144	0.139789	-0.008633	-0.139768	0.990180	0.002954	0.008962	-0.001718	0.999958	
6542														0.096419	-0.040840	9.795109	0.990146	0.139772	-0.008630	-0.139752	0.990182	0.002939	0.008956	-0.001704	0.999958	
6543														0.093790	0.006646	9.845110	0.990143	0.139797	-0.008640	-0.139776	0.990179	0.002940	0.008966	-0.001703	0.999958	
6544														0.072624	-0.040690	9.745872	0.990146	0.139774	-0.008620	-0.139753	0.990182	0.002938	0.008946	-0.001704	0.999959	
6545														0.070070	0.006719	9.795873	0.990146	0.139769	-0.008660	-0.139748	0.990183	0.002943	0.008987	-0.001704	0.999958	
6546														0.072140	-0.041671	9.770273	0.990143	0.139797	-0.008623	-0.139776	0.990179	0.002954	0.008951	-0.001720	0.999958	
6547														0.094316	0.007206	9.796308	0.990147	0.139761	-0.008666	-0.139741	0.990184	0.002945	0.008992	-0.001705	0.999958	
6548														0.070791	-0.018191	9.795275	0.990147	0.139762	-0.008643	-0.139741	0.990184	0.002958	0.008972	-0.001721	0.999958	
6549														0.094656	0.007525	9.771906	0.990146	0.139772	-0.008670	-0.139751	0.990182	0.002947	0.008997	-0.001706	0.999958	
6550														0.094286	-0.018783	9.844515	0.990148	0.139757	-0.008666	-0.139736	0.990184	0.002947	0.008992	-0.001707	0.999958	
6551														0.095037	-0.017701	9.795709	0.990147	0.139766	-0.008676	-0.139746	0.990183	0.002948	0.009002	-0.001707	0.999958	
6552														0.095449	-0.017230	9.771306	0.990143	0.139789	-0.008685	-0.139769	0.990180	0.002951	0.009013	-0.001708	0.999958	
6553														0.071024	-0.043858	9.819077	0.990144	0.139784	-0.008680	-0.139763	0.990181	0.002950	0.009008	-0.001708	0.999958	
6554														0.094811	-0.018064	9.795711	0.990139	0.139822	-0.008677	-0.139801	0.990175	0.002935	0.009002	-0.001693	0.999958	
6555														0.070798	-0.044077	9.819078	0.990139	0.139817	-0.008685	-0.139796	0.990176	0.002952	0.009012	-0.001709	0.999958	
6556														0.094133	0.006354	9.771912	0.990136	0.139845	-0.008659	-0.139824	0.990172	0.002995	0.008993	-0.001755	0.999958	
6557														0.118349	-0.018709	9.820552	0.990136	0.139839	-0.008656	-0.139818	0.990173	0.002980	0.008987	-0.001741	0.999958	
6558														0.094147	-0.019178	9.795715	0.990136	0.139843	-0.008631	-0.139822	0.990172	0.003009	0.008967	-0.001772	0.999958	
6559														0.093999	-0.019401	9.795716	0.990135	0.139853	-0.008643	-0.139832	0.990171	0.002995	0.008977	-0.001757	0.999958	
6560														0.094339	-0.018853	9.771314	0.990136	0.139844	-0.008638	-0.139823	0.990172	0.002995	0.008971	-0.001757	0.999958	
6561														0.094116	-0.019003	9.771316	0.990137	0.139838	-0.008617	-0.139817	0.990173	0.002993	0.008951	-0.001758	0.999958	
6562														0.069156	-0.020636	9.795282	0.990136	0.139846	-0.008627	-0.139825	0.990172	0.002994	0.008961	-0.001758	0.999958	
6563														0.116578	0.004718	9.821167	0.990134	0.139856	-0.008622	-0.139835	0.990170	0.002994	0.008956	-0.001758	0.999958	
6564														0.044081	0.003066	9.771047	0.990136	0.139844	-0.008613	-0.139822	0.990172	0.003024	0.008951	-0.001790	0.999958	
6565														0.094135	-0.044831	9.795114	0.990137	0.139838	-0.008625	-0.139817	0.990173	0.003011	0.008961	-0.001775	0.999958	
6566														0.092841	-0.021134	9.820123	0.990137	0.139839	-0.008636	-0.139818	0.990173	0.003013	0.008972	-0.001776	0.999958	
6567														0.068448	-0.022149	9.819684	0.990139	0.139819	-0.008646	-0.139797	0.990176	0.003015	0.008982	-0.001776	0.999958	
6568														0.094065	-0.045274	9.795113	0.990137	0.139833	-0.008638	-0.139811	0.990174	0.003029	0.008977	-0.001792	0.999958	
6569														0.092546	-0.021656	9.820125	0.990138	0.139827	-0.008620	-0.139806	0.990174	0.003012	0.008956	-0.001777	0.999958	
6570														0.116790	-0.020862	9.820566	0.990136	0.139841	-0.008630	-0.139820	0.990172	0.003014	0.008966	-0.001778	0.999958	
6571														0.092590	-0.021257	9.795726	0.990140	0.139820	-0.008594	-0.139799	0.990175	0.003010	0.008931	-0.001779	0.999959	
6572														0.092368	-0.021481	9.795727	0.990136	0.139843	-0.008603	-0.139822	0.990172	0.003027	0.008941	-0.001794	0.999958	
6573														0.092367	-0.021551	9.795727	0.990139	0.139822	-0.008617	-0.139801	0.990175	0.002998	0.008951	-0.001764	0.999958	
6574														0.092366	-0.021624	9.795727	0.990137	0.139835	-0.008625	-0.139814	0.990173	0.003015	0.008962	-0.001779	0.999958	
6575														0.092369	-0.021845	9.795726	0.990140	0.139814	-0.008635	-0.139793	0.990176	0.003017	0.008972	-0.001780	0.999958	
6576														0.091950	-0.022617	9.820129	0.990135	0.139849	-0.008645	-0.139828	0.990171	0.003019	0.008982	-0.001780	0.999958	
6577														0.091411	0.002256	9.796338	0.990134	0.139859	-0.008640	-0.139838	0.990170	0.003018	0.008977	-0.001780	0.999958	
6578														0.093521	-0.046046	9.770713	0.990135	0.139852	-0.008650	-0.139830	0.990171	0.003021	0.008987	-0.001781	0.999958	
6579														0.092146	-0.022431	9.795727	0.990133	0.139861	-0.008645	-0.139840	0.990170	0.003020	0.008982	-0.001782	0.999958	
6580														0.091679	0.002592	9.771937	0.990130	0.139883	-0.008673	-0.139862	0.990167	0.002994	0.009007	-0.001752	0.999958	
6581														0.091646	-0.023123	9.820130	0.990129	0.139893	-0.008651	-0.139871	0.990165	0.003007	0.008987	-0.001767	0.999958	
6582														0.067870	-0.023040	9.770884	0.990126	0.139911	-0.008644	-0.139890	0.990162	0.003022	0.008982	-0.001783	0.999958	
6583														0.116165	-0.022140	9.796172	0.990127	0.139906	-0.008654	-0.139884	0.990163	0.003024	0.008992	-0.001784	0.999958	
6584														0.067228	-0.024112	9.795287	0.990122	0.139940	-0.008632	-0.139919	0.990158	0.003037	0.008972	-0.001800	0.999958	
6585														0.091322	-0.023311	9.795733	0.990123	0.139934	-0.008615	-0.139913	0.990159	0.003005	0.008951	-0.001770	0.999958	
6586														0.114679	0.001807	9.796793	0.990122	0.139946	-0.008622	-0.139925	0.990158	0.003037	0.008962	-0.001800	0.999958	
6587														0.091177	-0.023829	9.795733	0.990122	0.139941	-0.008630	-0.139919	0.990158	0.003054	0.008972	-0.001816	0.999958	
6588														0.091991	-0.048294	9.795118	0.990124	0.139926	-0.008628	-0.139904	0.990160	0.003023	0.008966	-0.001787	0.999958	
6589														0.091297	-0.023197	9.771334	0.990119	0.139965	-0.008609	-0.139944	0.990155	0.003006	0.008945	-0.001771	0.999958	
6590														0.089801	-0.025162	9.844542	0.990120	0.139962	-0.008605	-0.139941	0.990155	0.003006	0.008941	-0.001772	0.999958	
6591														0.064865	-0.001168	9.820310	0.990118	0.139971	-0.008615	-0.139950	0.990154	0.003007	0.008951	-0.001772	0.999958	
6592														0.090498	-0.024192	9.795738	0.990117	0.139982	-0.008610	-0.139961	0.990152	0.003007	0.008946	-0.001772	0.999958	
6593														0.089034	-0.000584	9.820758	0.990120	0.139961	-0.008605	-0.139940	0.990155	0.003007	0.008941	-0.001773	0.999958	
6594														0.090703	-0.024006	9.771337	0.990117	0.139982	-0.008610	-0.139960	0.990152	0.003039	0.008951	-0.001804	0.999958	
6595														0.089779	-0.025418	9.820142	0.990115	0.139991	-0.008609	-0.139970	0.990151	0.003009	0.008945	-0.001774	0.999958	
6596														0.089627	-0.025416	9.820143	0.990113	0.140008	-0.008604	-0.139987	0.990149	0.003009	0.008940	-0.001774	0.999958	
6597														0.114369	-0.023970	9.796189	0.990112	0.140017	-0.008616	-0.139996	0.990147	0.002995	0.008950	-0.001759	0.999958	
6598														0.089976	-0.025000	9.795741	0.990112	0.140013	-0.008624	-0.139992	0.990148	0.003013	0.008961	-0.001776	0.999958	
6599														0.089904	-0.025223	9.795741	0.990111	0.140023	-0.008619	-0.140002	0.990147	0.003012	0.008956	-0.001776	0.999958	
6600														0.088935	-0.001054	9.796361	0.990111	0.140021	-0.008627	-0.139999	0.990147	0.003029	0.008966	-0.001792	0.999958	
6601														0.113724	-0.025340	9.820592	0.990108	0.140045	-0.008624	-0.140024	0.990144	0.003014	0.008961	-0.001776	0.999958	
6602														0.089107	-0.026450	9.820145	0.990110	0.140029	-0.008600	-0.140008	0.990146	0.003042	0.008941	-0.001808	0.999958	
6603														0.089816	-0.025552	9.771341	0.990111	0.140024	-0.008608	-0.140003	0.990146	0.003059	0.008952	-0.001824	0.999958	
6604														0.064419	-0.027860	9.819697	0.990106	0.140057	-0.008590	-0.140036	0.990142	0.003042	0.008931	-0.001809	0.999958	
6605														0.112583	-0.001131	9.796817	0.990107	0.140052	-0.008600	-0.140030	0.990143	0.003044	0.008941	-0.001809	0.999958	
6606														0.087763	-0.002802	9.820769	0.990104	0.140069	-0.008610	-0.140047	0.990140	0.003046	0.008952	-0.001810	0.999958	
6607														0.088113	-0.002236	9.796368	0.990105	0.140063	-0.008607	-0.140042	0.990141	0.003030	0.008947	-0.001795	0.999958	
6608														0.087534	-0.002947	9.820771	0.990101	0.140090	-0.008602	-0.140069	0.990137	0.003030	0.008941	-0.001795	0.999958	
6609														0.112750	-0.026514	9.820600	0.990098	0.140115	-0.008613	-0.140093	0.990134	0.003016	0.008951	-0.001780	0.999958	
6610														0.089491	-0.025708	9.746944	0.990097	0.140125	-0.008589	-0.140103	0.990132	0.003044	0.008931	-0.001811	0.999958	
6611														0.087586	-0.002822	9.796372	0.990102	0.140089	-0.008602	-0.140067	0.990137	0.003031	0.008941	-0.001796	0.999958	
6612														0.088487	-0.027209	9.795749	0.990098	0.140115	-0.008614	-0.140094	0.990134	0.003017	0.008951	-0.001781	0.999958	
6613														0.111901	-0.001999	9.796825	0.990101	0.140095	-0.008609	-0.140073	0.990137	0.003017	0.008947	-0.001781	0.999958	
6614														0.088738	-0.052385	9.819529	0.990100	0.140103	-0.008605	-0.140082	0.990135	0.003001	0.008941	-0.001766	0.999958	
6615														0.088037	-0.027504	9.795752	0.990098	0.140112	-0.008583	-0.140091	0.990134	0.003014	0.008920	-0.001782	0.999959	
6616														0.111807	-0.001803	9.772429	0.990098	0.140118	-0.008593	-0.140097	0.990133	0.003017	0.008931	-0.001783	0.999959	
6617														0.087307	-0.028366	9.820156	0.990094	0.140142	-0.008576	-0.140121	0.990130	0.002984	0.008909	-0.001753	0.999959	
6618														0.061708	-0.005024	9.820329	0.990097	0.140124	-0.008552	-0.140103	0.990132	0.003012	0.008890	-0.001784	0.999959	
6619														0.062972	-0.028920	9.795302	0.990095	0.140133	-0.008581	-0.140112	0.990131	0.002986	0.008915	-0.001754	0.999959	
6620														0.086100	-0.004346	9.820783	0.990095	0.140135	-0.008589	-0.140114	0.990131	0.003003	0.008925	-0.001769	0.999959	
6621														0.062973	-0.029212	9.795301	0.990094	0.140144	-0.008584	-0.140123	0.990129	0.003002	0.008920	-0.001770	0.999959	
6622														0.086383	-0.004073	9.796383	0.990094	0.140145	-0.008594	-0.140124	0.990129	0.003004	0.008930	-0.001770	0.999959	
6623														0.087293	-0.028609	9.795756	0.990094	0.140139	-0.008604	-0.140118	0.990130	0.003006	0.008940	-0.001771	0.999958	
6624														0.085954	-0.005011	9.820784	0.990097	0.140124	-0.008614	-0.140103	0.990132	0.003008	0.008951	-0.001771	0.999958	
6625														0.112199	-0.027512	9.771806	0.990099	0.140104	-0.008636	-0.140082	0.990135	0.003042	0.008977	-0.001802	0.999958	
6626														0.063058	-0.030098	9.795298	0.990097	0.140118	-0.008650	-0.140096	0.990133	0.003013	0.008987	-0.001772	0.999958	
6627														0.087297	-0.029121	9.795754	0.990094	0.140142	-0.008631	-0.140121	0.990130	0.002996	0.008966	-0.001757	0.999958	
6628														0.087147	-0.029268	9.795755	0.990095	0.140135	-0.008640	-0.140114	0.990131	0.003013	0.008977	-0.001772	0.999958	
6629														0.087762	-0.053883	9.795128	0.990094	0.140144	-0.008589	-0.140123	0.990130	0.003007	0.008926	-0.001773	0.999959	
6630														0.087132	-0.028921	9.771356	0.990096	0.140125	-0.008632	-0.140104	0.990132	0.002996	0.008967	-0.001757	0.999958	
6631														0.061465	-0.006001	9.795931	0.990097	0.140119	-0.008631	-0.140098	0.990133	0.002966	0.008961	-0.001727	0.999958	
6632														0.062229	-0.030465	9.795302	0.990098	0.140115	-0.008625	-0.140094	0.990134	0.002981	0.008957	-0.001743	0.999958	
6633														0.110433	-0.029455	9.820618	0.990096	0.140124	-0.008622	-0.140103	0.990132	0.002965	0.008952	-0.001728	0.999958	
6634														0.087118	-0.028644	9.746958	0.990100	0.140098	-0.008598	-0.140077	0.990136	0.002993	0.008932	-0.001759	0.999959	
6635														0.086611	-0.029438	9.771359	0.990099	0.140108	-0.008626	-0.140087	0.990135	0.002966	0.008957	-0.001729	0.999958	
6636														0.084903	-0.006414	9.820793	0.990098	0.140111	-0.008636	-0.140090	0.990134	0.002984	0.008968	-0.001745	0.999958	
6637														0.084779	0.019050	9.772621	0.990095	0.140136	-0.008630	-0.140115	0.990131	0.002983	0.008963	-0.001745	0.999958	
6638														0.085186	-0.006132	9.796392	0.990095	0.140134	-0.008641	-0.140113	0.990131	0.002985	0.008974	-0.001745	0.999958	
6639														0.086103	-0.030666	9.795760	0.990093	0.140144	-0.008651	-0.140123	0.990130	0.002987	0.008984	-0.001745	0.999958	
6640														0.086388	-0.030164	9.771359	0.990091	0.140162	-0.008630	-0.140141	0.990127	0.002985	0.008964	-0.001746	0.999958	
6641														0.085734	-0.031114	9.795762	0.990094	0.140142	-0.008622	-0.140121	0.990130	0.003015	0.008959	-0.001777	0.999958	
6642														0.084306	-0.007524	9.820797	0.990092	0.140153	-0.008636	-0.140132	0.990128	0.002987	0.008969	-0.001747	0.999958	
6643														0.084518	-0.007025	9.796397	0.990095	0.140132	-0.008597	-0.140111	0.990131	0.003013	0.008934	-0.001779	0.999959	
6644														0.109608	-0.030729	9.796225	0.990092	0.140155	-0.008609	-0.140134	0.990128	0.002999	0.008945	-0.001763	0.999958	
6645														0.085213	-0.031634	9.795765	0.990092	0.140155	-0.008609	-0.140134	0.990128	0.002999	0.008945	-0.001763	0.999958	
6646														0.059388	-0.008879	9.820341	0.990090	0.140172	-0.008604	-0.140151	0.990126	0.002999	0.008940	-0.001764	0.999958	
6647														0.084066	-0.007464	9.796401	0.990086	0.140197	-0.008599	-0.140176	0.990122	0.002999	0.008934	-0.001764	0.999959	
6648														0.085201	-0.031422	9.771366	0.990086	0.140204	-0.008577	-0.140183	0.990121	0.003012	0.008914	-0.001780	0.999959	
6649														0.083770	-0.007984	9.796403	0.990088	0.140184	-0.008600	-0.140163	0.990124	0.003031	0.008940	-0.001795	0.999958	
6650														0.059231	-0.009194	9.795942	0.990086	0.140205	-0.008563	-0.140183	0.990121	0.003041	0.008905	-0.001811	0.999959	
6651														0.108350	-0.032482	9.820632	0.990084	0.140214	-0.008592	-0.140193	0.990120	0.003014	0.008930	-0.001780	0.999959	
6652														0.107351	-0.008169	9.821269	0.990088	0.140190	-0.008570	-0.140169	0.990123	0.003029	0.008910	-0.001797	0.999959	
6653														0.083250	-0.008653	9.796407	0.990086	0.140200	-0.008580	-0.140178	0.990122	0.003030	0.008920	-0.001797	0.999959	
6654														0.107204	-0.008540	9.821271	0.990095	0.140141	-0.008539	-0.140119	0.990130	0.003081	0.008887	-0.001854	0.999959	
6655														0.083175	-0.008946	9.796407	0.990093	0.140151	-0.008534	-0.140129	0.990128	0.003081	0.008882	-0.001854	0.999959	
6656														0.083541	-0.008511	9.772006	0.990094	0.140149	-0.008542	-0.140127	0.990129	0.003098	0.008892	-0.001870	0.999959	
6657														0.059565	-0.034767	9.795305	0.990092	0.140159	-0.008535	-0.140137	0.990127	0.003113	0.008887	-0.001886	0.999959	
6658														0.083881	-0.033923	9.795768	0.990091	0.140167	-0.008549	-0.140146	0.990126	0.003084	0.008897	-0.001855	0.999959	
6659														0.083806	-0.034069	9.795769	0.990090	0.140178	-0.008540	-0.140156	0.990125	0.003114	0.008892	-0.001886	0.999959	
6660														0.082437	-0.010483	9.820810	0.990087	0.140195	-0.008569	-0.140174	0.990122	0.003087	0.008917	-0.001856	0.999959	
6661														0.082361	-0.010555	9.820811	0.990088	0.140190	-0.008547	-0.140168	0.990123	0.003101	0.008897	-0.001872	0.999959	
6662														0.081648	0.014265	9.797053	0.990089	0.140184	-0.008542	-0.140162	0.990124	0.003100	0.008892	-0.001872	0.999959	
6663														0.107604	-0.033818	9.796237	0.990088	0.140193	-0.008504	-0.140172	0.990122	0.003111	0.008856	-0.001889	0.999959	
6664														0.081125	0.013889	9.797057	0.990088	0.140188	-0.008516	-0.140166	0.990123	0.003098	0.008866	-0.001874	0.999959	
6665														0.082472	-0.035619	9.820174	0.990087	0.140197	-0.008511	-0.140176	0.990122	0.003098	0.008861	-0.001874	0.999959	
6666														0.083205	-0.034372	9.771373	0.990087	0.140196	-0.008507	-0.140174	0.990122	0.003083	0.008855	-0.001860	0.999959	
6667														0.081831	-0.010865	9.796417	0.990086	0.140206	-0.008528	-0.140184	0.990121	0.003116	0.008881	-0.001890	0.999959	
6668														0.081833	-0.011159	9.796416	0.990084	0.140216	-0.008523	-0.140194	0.990119	0.003116	0.008876	-0.001890	0.999959	
6669														0.081243	-0.011970	9.820818	0.990087	0.140195	-0.008518	-0.140173	0.990122	0.003116	0.008871	-0.001891	0.999959	
6670														0.106447	-0.009802	9.772484	0.990091	0.140166	-0.008530	-0.140144	0.990126	0.003103	0.008881	-0.001877	0.999959	
6671														0.082472	-0.035775	9.795774	0.990092	0.140160	-0.008527	-0.140139	0.990127	0.003088	0.008876	-0.001862	0.999959	
6672														0.130322	-0.009614	9.797353	0.990093	0.140156	-0.008552	-0.140134	0.990128	0.003091	0.008901	-0.001862	0.999959	
6673														0.081019	-0.012194	9.820820	0.990091	0.140165	-0.008534	-0.140143	0.990126	0.003074	0.008880	-0.001848	0.999959	
6674														0.105338	-0.011421	9.821288	0.990095	0.140135	-0.008557	-0.140113	0.990131	0.003094	0.008906	-0.001864	0.999959	
6675														0.080872	-0.012493	9.820821	0.990092	0.140159	-0.008539	-0.140138	0.990127	0.003076	0.008885	-0.001849	0.999959	
6676														0.082470	-0.035775	9.771374	0.990091	0.140170	-0.008530	-0.140149	0.990126	0.003106	0.008881	-0.001880	0.999959	
6677														0.081462	-0.011684	9.772021	0.990091	0.140165	-0.008540	-0.140143	0.990126	0.003108	0.008891	-0.001880	0.999959	
6678														0.081019	-0.012495	9.796421	0.990092	0.140161	-0.008549	-0.140139	0.990127	0.003110	0.008901	-0.001881	0.999959	
6679														0.080946	-0.012717	9.796422	0.990091	0.140171	-0.008542	-0.140149	0.990126	0.003124	0.008896	-0.001896	0.999959	
6680														0.104302	-0.013345	9.845694	0.990090	0.140175	-0.008537	-0.140153	0.990125	0.003125	0.008890	-0.001897	0.999959	
6681														0.080720	-0.012864	9.796423	0.990091	0.140168	-0.008552	-0.140147	0.990126	0.003081	0.008900	-0.001852	0.999959	
6682														0.081509	-0.037325	9.795776	0.990089	0.140181	-0.008527	-0.140160	0.990124	0.003109	0.008879	-0.001883	0.999959	
6683														0.080199	-0.013747	9.820825	0.990087	0.140191	-0.008586	-0.140169	0.990123	0.003086	0.008934	-0.001852	0.999958	
6684														0.080198	-0.013891	9.820824	0.990086	0.140201	-0.008547	-0.140179	0.990121	0.003112	0.008899	-0.001883	0.999959	
6685														0.080420	-0.013449	9.796425	0.990087	0.140195	-0.008559	-0.140174	0.990122	0.003099	0.008909	-0.001868	0.999959	
6686														0.104291	-0.013260	9.821297	0.990087	0.140196	-0.008554	-0.140175	0.990122	0.003099	0.008904	-0.001869	0.999959	
6687														0.104217	-0.013409	9.821297	0.990087	0.140191	-0.008564	-0.140169	0.990123	0.003101	0.008914	-0.001870	0.999959	
6688														0.078885	0.009826	9.821477	0.990087	0.140190	-0.008571	-0.140168	0.990123	0.003118	0.008924	-0.001885	0.999958	
6689														0.081220	-0.038576	9.795774	0.990088	0.140185	-0.008580	-0.140163	0.990123	0.003135	0.008934	-0.001901	0.999958	
6690														0.103704	-0.014745	9.845698	0.990088	0.140188	-0.008577	-0.140166	0.990123	0.003120	0.008929	-0.001887	0.999958	
6691														0.104818	-0.012887	9.772498	0.990089	0.140183	-0.008555	-0.140161	0.990124	0.003133	0.008909	-0.001903	0.999959	
6692														0.079385	-0.015309	9.820829	0.990089	0.140182	-0.008566	-0.140160	0.990124	0.003120	0.008919	-0.001888	0.999958	
6693														0.079830	-0.014708	9.796428	0.990085	0.140207	-0.008576	-0.140185	0.990120	0.003121	0.008929	-0.001888	0.999958	
6694														0.105092	-0.038307	9.796247	0.990085	0.140207	-0.008571	-0.140185	0.990120	0.003121	0.008924	-0.001889	0.999958	
6695														0.079607	-0.015078	9.796429	0.990086	0.140202	-0.008564	-0.140180	0.990121	0.003136	0.008919	-0.001905	0.999958	
6696														0.079014	-0.015976	9.820831	0.990089	0.140183	-0.008559	-0.140161	0.990124	0.003136	0.008914	-0.001906	0.999958	
6697														0.103704	-0.014446	9.796904	0.990089	0.140177	-0.008556	-0.140155	0.990125	0.003121	0.008909	-0.001891	0.999959	
6698														0.078641	-0.016278	9.820833	0.990088	0.140186	-0.008532	-0.140164	0.990123	0.003149	0.008889	-0.001922	0.999959	
6699														0.103336	-0.015042	9.796907	0.990089	0.140181	-0.008540	-0.140159	0.990124	0.003166	0.008899	-0.001938	0.999959	
6700														0.080341	-0.039835	9.771376	0.990084	0.140213	-0.008552	-0.140191	0.990120	0.003153	0.008909	-0.001923	0.999958	
6701														0.078567	-0.016791	9.820833	0.990087	0.140192	-0.008579	-0.140170	0.990122	0.003141	0.008934	-0.001908	0.999958	
6702														0.103932	-0.014652	9.772505	0.990088	0.140188	-0.008587	-0.140166	0.990123	0.003158	0.008945	-0.001923	0.999958	
6703														0.079020	-0.016486	9.796432	0.990088	0.140182	-0.008582	-0.140160	0.990124	0.003158	0.008940	-0.001924	0.999958	
6704														0.078422	-0.017237	9.820833	0.990089	0.140177	-0.008579	-0.140155	0.990125	0.003143	0.008934	-0.001909	0.999958	
6705														0.078719	-0.016562	9.796434	0.990090	0.140171	-0.008575	-0.140149	0.990125	0.003128	0.008929	-0.001895	0.999958	
6706														0.078717	-0.016559	9.796434	0.990091	0.140167	-0.008602	-0.140145	0.990126	0.003116	0.008954	-0.001879	0.999958	
6707														0.078268	-0.017453	9.820834	0.990085	0.140207	-0.008593	-0.140185	0.990120	0.003146	0.008949	-0.001910	0.999958	
6708														0.102509	-0.016660	9.821310	0.990088	0.140183	-0.008591	-0.140161	0.990124	0.003115	0.008943	-0.001880	0.999958	
6709														0.077966	-0.017601	9.820836	0.990087	0.140192	-0.008586	-0.140170	0.990122	0.003115	0.008938	-0.001880	0.999958	
6710														0.078341	-0.017072	9.796436	0.990087	0.140193	-0.008596	-0.140171	0.990122	0.003117	0.008948	-0.001881	0.999958	
6711														0.103031	-0.015526	9.772513	0.990084	0.140217	-0.008578	-0.140195	0.990119	0.003099	0.008927	-0.001866	0.999958	
6712														0.077964	-0.017293	9.796439	0.990083	0.140223	-0.008570	-0.140201	0.990118	0.003115	0.008922	-0.001882	0.999958	
6713														0.077364	-0.018119	9.820840	0.990082	0.140232	-0.008567	-0.140210	0.990117	0.003100	0.008917	-0.001868	0.999958	
6714														0.078191	-0.016837	9.772040	0.990083	0.140220	-0.008577	-0.140198	0.990119	0.003102	0.008928	-0.001869	0.999958	
6715														0.102188	-0.042537	9.845058	0.990084	0.140215	-0.008586	-0.140193	0.990119	0.003119	0.008938	-0.001884	0.999958	
6716														0.076642	0.006349	9.797101	0.990084	0.140215	-0.008563	-0.140193	0.990119	0.003132	0.008918	-0.001901	0.999958	
6717														0.078331	-0.042574	9.795781	0.990083	0.140225	-0.008560	-0.140203	0.990118	0.003117	0.008912	-0.001886	0.999959	
6718														0.077150	-0.018264	9.796444	0.990087	0.140197	-0.008540	-0.140175	0.990122	0.003115	0.008893	-0.001887	0.999959	
6719														0.075970	0.005896	9.797107	0.990085	0.140207	-0.008533	-0.140185	0.990120	0.003129	0.008888	-0.001902	0.999959	
6720														0.102203	-0.042078	9.796263	0.990086	0.140203	-0.008545	-0.140181	0.990121	0.003116	0.008898	-0.001887	0.999959	
6721														0.076929	-0.018709	9.796444	0.990089	0.140183	-0.008571	-0.140161	0.990124	0.003120	0.008923	-0.001888	0.999958	
6722														0.076402	-0.019538	9.820845	0.990087	0.140195	-0.008550	-0.140173	0.990122	0.003118	0.008902	-0.001888	0.999959	
6723														0.076704	-0.018931	9.796446	0.990088	0.140190	-0.008562	-0.140168	0.990123	0.003104	0.008912	-0.001874	0.999959	
6724														0.075743	0.005458	9.797109	0.990089	0.140179	-0.008573	-0.140157	0.990124	0.003090	0.008921	-0.001858	0.999958	
6725														0.101452	-0.043200	9.820664	0.990092	0.140158	-0.008551	-0.140137	0.990127	0.003104	0.008902	-0.001875	0.999959	
6726														0.075374	0.005006	9.797112	0.990090	0.140173	-0.008544	-0.140151	0.990125	0.003119	0.008897	-0.001891	0.999959	
6727														0.077150	-0.044065	9.795783	0.990091	0.140167	-0.008537	-0.140145	0.990126	0.003134	0.008892	-0.001907	0.999959	
6728														0.099470	0.005506	9.797596	0.990092	0.140160	-0.008533	-0.140138	0.990127	0.003119	0.008886	-0.001892	0.999959	
6729														0.100432	-0.018953	9.796931	0.990095	0.140140	-0.008559	-0.140118	0.990130	0.003122	0.008912	-0.001892	0.999958	
6730														0.098940	0.004601	9.821997	0.990093	0.140150	-0.008539	-0.140128	0.990128	0.003120	0.008892	-0.001893	0.999959	
6731														0.075362	-0.020956	9.820850	0.990090	0.140175	-0.008546	-0.140153	0.990125	0.003137	0.008902	-0.001908	0.999959	
6732														0.099095	0.004918	9.797600	0.990090	0.140175	-0.008528	-0.140154	0.990125	0.003120	0.008881	-0.001894	0.999959	
6733														0.100874	-0.044003	9.796268	0.990091	0.140170	-0.008536	-0.140148	0.990126	0.003137	0.008891	-0.001909	0.999959	
6734														0.074559	0.003521	9.797119	0.990090	0.140176	-0.008544	-0.140153	0.990125	0.003154	0.008901	-0.001925	0.999959	
6735														0.100297	-0.019374	9.772535	0.990091	0.140170	-0.008540	-0.140148	0.990126	0.003139	0.008896	-0.001911	0.999959	
6736														0.074917	-0.021772	9.820852	0.990089	0.140183	-0.008550	-0.140161	0.990124	0.003141	0.008906	-0.001911	0.999959	
6737														0.073875	0.002541	9.821521	0.990090	0.140177	-0.008547	-0.140155	0.990125	0.003125	0.008901	-0.001896	0.999959	
6738														0.100576	-0.044513	9.796269	0.990087	0.140192	-0.008560	-0.140170	0.990123	0.003097	0.008910	-0.001866	0.999959	
6739														0.074759	-0.021836	9.820853	0.990084	0.140217	-0.008568	-0.140195	0.990119	0.003113	0.008920	-0.001881	0.999958	
6740														0.076493	-0.044997	9.771385	0.990089	0.140181	-0.008550	-0.140159	0.990124	0.003097	0.008900	-0.001867	0.999959	
6741														0.074845	-0.021450	9.796455	0.990086	0.140206	-0.008543	-0.140184	0.990121	0.003111	0.008895	-0.001883	0.999959	
6742														0.100057	-0.045177	9.796271	0.990086	0.140205	-0.008536	-0.140183	0.990121	0.003126	0.008890	-0.001899	0.999959	
6743														0.097513	0.002681	9.822012	0.990087	0.140199	-0.008531	-0.140177	0.990121	0.003126	0.008885	-0.001899	0.999959	
6744														0.074402	-0.022120	9.796457	0.990085	0.140213	-0.008525	-0.140191	0.990120	0.003126	0.008879	-0.001900	0.999959	
6745														0.098640	-0.021235	9.796944	0.990083	0.140222	-0.008522	-0.140200	0.990118	0.003111	0.008874	-0.001885	0.999959	
6746														0.074101	-0.022341	9.796459	0.990084	0.140218	-0.008515	-0.140196	0.990119	0.003126	0.008869	-0.001901	0.999959	
6747														0.097806	-0.022222	9.821347	0.990081	0.140242	-0.008496	-0.140220	0.990115	0.003108	0.008848	-0.001886	0.999959	
6748														0.073723	-0.022488	9.796461	0.990082	0.140234	-0.008508	-0.140212	0.990117	0.003095	0.008858	-0.001871	0.999959	
6749														0.101728	-0.016148	9.601750	0.990081	0.140243	-0.008501	-0.140222	0.990115	0.003110	0.008853	-0.001887	0.999959	
6750														0.095861	-0.051042	9.967075	0.990078	0.140258	-0.008543	-0.140236	0.990113	0.003100	0.008894	-0.001871	0.999959	
6751														0.070924	0.024615	9.846605	0.990079	0.140252	-0.008540	-0.140230	0.990114	0.003085	0.008888	-0.001856	0.999959	
6752														0.072305	0.026544	9.773405	0.990078	0.140260	-0.008563	-0.140238	0.990113	0.003103	0.008914	-0.001871	0.999959	
6753														0.097266	-0.023561	9.845747	0.990079	0.140254	-0.008558	-0.140233	0.990114	0.003103	0.008909	-0.001872	0.999959	
6754														0.075102	-0.021060	9.723260	0.990077	0.140267	-0.008571	-0.140245	0.990112	0.003074	0.008918	-0.001842	0.999959	
6755														0.074159	-0.048213	9.820187	0.990080	0.140246	-0.008566	-0.140224	0.990115	0.003074	0.008913	-0.001843	0.999959	
6756														0.096983	0.001992	9.797623	0.990076	0.140271	-0.008575	-0.140249	0.990111	0.003091	0.008923	-0.001857	0.999958	
6757														0.074548	-0.047887	9.795786	0.990077	0.140265	-0.008586	-0.140244	0.990112	0.003077	0.008933	-0.001843	0.999958	
6758														0.096370	0.001080	9.822024	0.990077	0.140263	-0.008566	-0.140241	0.990113	0.003076	0.008913	-0.001844	0.999959	
6759														0.098510	-0.021374	9.748152	0.990076	0.140272	-0.008561	-0.140251	0.990111	0.003075	0.008908	-0.001844	0.999959	
6760														0.072196	-0.025261	9.845262	0.990073	0.140292	-0.008571	-0.140270	0.990108	0.003077	0.008918	-0.001845	0.999959	
6761														0.072605	0.001058	9.772738	0.990078	0.140256	-0.008581	-0.140235	0.990113	0.003079	0.008928	-0.001846	0.999958	
6762														0.096825	-0.023826	9.821353	0.990075	0.140282	-0.008547	-0.140261	0.990110	0.003060	0.008892	-0.001831	0.999959	
6763														0.095156	-0.000284	9.846431	0.990075	0.140277	-0.008556	-0.140255	0.990111	0.003077	0.008903	-0.001847	0.999959	
6764														0.097454	-0.022805	9.772556	0.990074	0.140286	-0.008550	-0.140265	0.990109	0.003077	0.008897	-0.001847	0.999959	
6765														0.096768	-0.023725	9.796957	0.990075	0.140281	-0.008528	-0.140259	0.990110	0.003090	0.008877	-0.001863	0.999959	
6766														0.071174	-0.000535	9.797145	0.990076	0.140271	-0.008524	-0.140249	0.990111	0.003090	0.008873	-0.001863	0.999959	
6767														0.096397	-0.024099	9.796960	0.990075	0.140281	-0.008518	-0.140259	0.990110	0.003089	0.008867	-0.001864	0.999959	
6768														0.072768	-0.049677	9.795790	0.990072	0.140302	-0.008496	-0.140280	0.990107	0.003103	0.008847	-0.001880	0.999959	
6769														0.096027	-0.024546	9.796963	0.990075	0.140282	-0.008506	-0.140260	0.990110	0.003105	0.008858	-0.001881	0.999959	
6770														0.095879	-0.024696	9.796964	0.990073	0.140295	-0.008486	-0.140273	0.990108	0.003103	0.008837	-0.001882	0.999959	
6771														0.094669	-0.000459	9.797645	0.990072	0.140305	-0.008480	-0.140283	0.990107	0.003103	0.008832	-0.001882	0.999959	
6772														0.095113	-0.025762	9.821365	0.990068	0.140332	-0.008488	-0.140310	0.990103	0.003119	0.008842	-0.001897	0.999959	
6773														0.095112	-0.025905	9.821365	0.990067	0.140341	-0.008500	-0.140319	0.990101	0.003106	0.008851	-0.001882	0.999959	
6774														0.094983	-0.000193	9.773247	0.990069	0.140324	-0.008495	-0.140303	0.990104	0.003106	0.008847	-0.001883	0.999959	
6775														0.071044	-0.026551	9.796471	0.990070	0.140320	-0.008501	-0.140298	0.990104	0.003138	0.008858	-0.001914	0.999959	
6776														0.070507	-0.027552	9.820870	0.990074	0.140293	-0.008496	-0.140271	0.990108	0.003137	0.008852	-0.001915	0.999959	
6777														0.093837	-0.002418	9.822048	0.990074	0.140288	-0.008504	-0.140266	0.990109	0.003154	0.008862	-0.001930	0.999959	
6778														0.093689	-0.002642	9.822050	0.990072	0.140303	-0.008484	-0.140281	0.990107	0.003153	0.008842	-0.001931	0.999959	
6779														0.095146	-0.026396	9.796966	0.990077	0.140268	-0.008526	-0.140245	0.990112	0.003143	0.008883	-0.001916	0.999959	
6780														0.070983	-0.027443	9.796469	0.990079	0.140253	-0.008552	-0.140231	0.990114	0.003147	0.008908	-0.001917	0.999958	
6781														0.095842	-0.025984	9.772564	0.990075	0.140278	-0.008544	-0.140256	0.990110	0.003162	0.008903	-0.001932	0.999958	
6782														0.095225	-0.026835	9.796964	0.990076	0.140275	-0.008541	-0.140253	0.990111	0.003147	0.008898	-0.001918	0.999959	
6783														0.093689	-0.003152	9.822049	0.990074	0.140284	-0.008552	-0.140262	0.990109	0.003133	0.008907	-0.001902	0.999959	
6784														0.095464	-0.026199	9.772567	0.990074	0.140290	-0.008532	-0.140268	0.990109	0.003131	0.008887	-0.001903	0.999959	
6785														0.094846	-0.026979	9.796968	0.990074	0.140290	-0.008532	-0.140268	0.990109	0.003131	0.008887	-0.001903	0.999959	
6786														0.070307	-0.028032	9.796472	0.990073	0.140294	-0.008512	-0.140272	0.990108	0.003128	0.008867	-0.001903	0.999959	
6787														0.093854	-0.027913	9.821371	0.990077	0.140273	-0.008477	-0.140251	0.990111	0.003125	0.008831	-0.001905	0.999959	
6788														0.093108	-0.003048	9.797660	0.990073	0.140300	-0.008485	-0.140278	0.990107	0.003141	0.008841	-0.001920	0.999959	
6789														0.069714	-0.028632	9.796474	0.990075	0.140280	-0.008495	-0.140258	0.990110	0.003143	0.008852	-0.001920	0.999959	
6790														0.094628	-0.052816	9.820685	0.990076	0.140278	-0.008507	-0.140256	0.990110	0.003130	0.008862	-0.001906	0.999959	
6791														0.092959	-0.003415	9.797661	0.990074	0.140288	-0.008486	-0.140266	0.990109	0.003128	0.008841	-0.001906	0.999959	
6792														0.092188	-0.004273	9.822063	0.990076	0.140281	-0.008466	-0.140259	0.990110	0.003126	0.008821	-0.001907	0.999959	
6793														0.069043	-0.029083	9.796478	0.990076	0.140275	-0.008461	-0.140253	0.990111	0.003126	0.008816	-0.001908	0.999959	
6794														0.092288	-0.003939	9.797667	0.990073	0.140300	-0.008453	-0.140278	0.990107	0.003140	0.008810	-0.001923	0.999959	
6795														0.093134	-0.028543	9.796980	0.990072	0.140310	-0.008448	-0.140288	0.990106	0.003140	0.008805	-0.001924	0.999959	
6796														0.067649	-0.031092	9.845278	0.990070	0.140323	-0.008443	-0.140301	0.990104	0.003140	0.008800	-0.001924	0.999959	
6797														0.092309	-0.003670	9.773272	0.990071	0.140317	-0.008440	-0.140295	0.990105	0.003125	0.008795	-0.001910	0.999960	
6798														0.093209	-0.053930	9.820693	0.990069	0.140329	-0.008435	-0.140307	0.990103	0.003125	0.008790	-0.001910	0.999960	
6799														0.092006	-0.003815	9.773275	0.990068	0.140338	-0.008431	-0.140317	0.990102	0.003109	0.008784	-0.001895	0.999960	
6800														0.091983	-0.029764	9.821384	0.990066	0.140351	-0.008439	-0.140329	0.990100	0.003126	0.008794	-0.001911	0.999960	
6801														0.093459	-0.053656	9.796293	0.990064	0.140361	-0.008449	-0.140339	0.990099	0.003127	0.008804	-0.001911	0.999959	
6802														0.091458	-0.005035	9.797675	0.990068	0.140337	-0.008459	-0.140315	0.990102	0.003129	0.008814	-0.001911	0.999959	
6803														0.091762	-0.030282	9.821384	0.990067	0.140346	-0.008423	-0.140325	0.990101	0.003125	0.008779	-0.001912	0.999960	
6804														0.092563	-0.029008	9.772587	0.990068	0.140332	-0.008449	-0.140310	0.990103	0.003129	0.008804	-0.001913	0.999959	
6805														0.066623	-0.006473	9.797174	0.990067	0.140341	-0.008429	-0.140319	0.990101	0.003127	0.008784	-0.001913	0.999960	
6806														0.092014	-0.029939	9.796986	0.990067	0.140338	-0.008471	-0.140316	0.990102	0.003118	0.008825	-0.001898	0.999959	
6807														0.041728	0.043225	9.724858	0.990070	0.140317	-0.008464	-0.140295	0.990105	0.003133	0.008820	-0.001914	0.999959	
6808														0.091542	-0.030946	9.821384	0.990068	0.140331	-0.008477	-0.140309	0.990103	0.003119	0.008830	-0.001899	0.999959	
6809														0.091068	-0.031879	9.845783	0.990067	0.140341	-0.008483	-0.140319	0.990101	0.003151	0.008841	-0.001930	0.999959	
6810														0.116682	-0.003230	9.724987	0.990066	0.140346	-0.008462	-0.140324	0.990101	0.003149	0.008820	-0.001930	0.999959	
6811														0.090220	-0.033044	9.870183	0.990069	0.140326	-0.008457	-0.140304	0.990104	0.003149	0.008815	-0.001931	0.999959	
6812														0.116316	-0.003676	9.724991	0.990067	0.140339	-0.008448	-0.140317	0.990102	0.003179	0.008811	-0.001962	0.999959	
6813														0.090879	-0.032065	9.821387	0.990073	0.140303	-0.008447	-0.140281	0.990107	0.003149	0.008805	-0.001933	0.999959	
6814														0.063849	0.015065	9.846672	0.990073	0.140302	-0.008443	-0.140280	0.990107	0.003134	0.008799	-0.001919	0.999959	
6815														0.091154	-0.005609	9.748887	0.990073	0.140297	-0.008467	-0.140275	0.990108	0.003153	0.008825	-0.001934	0.999959	
6816														0.064857	-0.009613	9.845976	0.990072	0.140304	-0.008463	-0.140282	0.990107	0.003137	0.008820	-0.001919	0.999959	
6817														0.091409	-0.005186	9.724490	0.990073	0.140298	-0.008441	-0.140276	0.990107	0.003150	0.008800	-0.001935	0.999959	
6818														0.064885	-0.009199	9.821580	0.990074	0.140294	-0.008438	-0.140272	0.990108	0.003135	0.008795	-0.001920	0.999959	
6819														0.089673	-0.007483	9.797690	0.990070	0.140319	-0.008450	-0.140297	0.990105	0.003121	0.008804	-0.001905	0.999959	
6820														0.090148	-0.006760	9.773291	0.990071	0.140312	-0.008462	-0.140290	0.990106	0.003108	0.008815	-0.001890	0.999959	
6821														0.089116	-0.008342	9.822089	0.990070	0.140322	-0.008455	-0.140300	0.990104	0.003123	0.008810	-0.001906	0.999959	
6822														0.090936	-0.031439	9.772595	0.990073	0.140302	-0.008452	-0.140280	0.990107	0.003108	0.008804	-0.001891	0.999959	
6823														0.112802	-0.008289	9.846998	0.990073	0.140296	-0.008462	-0.140275	0.990108	0.003110	0.008815	-0.001892	0.999959	
6824														0.065390	-0.008350	9.772785	0.990075	0.140285	-0.008455	-0.140263	0.990109	0.003124	0.008809	-0.001907	0.999959	
6825														0.089225	-0.008292	9.797693	0.990072	0.140309	-0.008464	-0.140288	0.990106	0.003125	0.008819	-0.001907	0.999959	
6826														0.064507	-0.010152	9.821582	0.990074	0.140287	-0.008505	-0.140265	0.990109	0.003131	0.008860	-0.001907	0.999959	
6827														0.066628	-0.033166	9.772084	0.990075	0.140281	-0.008517	-0.140259	0.990110	0.003117	0.008870	-0.001892	0.999959	
6828														0.111464	0.014570	9.872094	0.990075	0.140279	-0.008526	-0.140257	0.990110	0.003134	0.008882	-0.001908	0.999959	
6829														0.089930	-0.008077	9.773292	0.990074	0.140288	-0.008523	-0.140266	0.990109	0.003119	0.008876	-0.001893	0.999959	
6830														0.114702	-0.032254	9.797500	0.990075	0.140281	-0.008517	-0.140259	0.990110	0.003119	0.008870	-0.001893	0.999959	
6831														0.065777	-0.034403	9.796483	0.990074	0.140290	-0.008512	-0.140268	0.990109	0.003118	0.008865	-0.001894	0.999959	
6832														0.090496	-0.032829	9.772594	0.990075	0.140281	-0.008506	-0.140259	0.990110	0.003118	0.008860	-0.001894	0.999959	
6833														0.088374	-0.010043	9.822094	0.990080	0.140245	-0.008502	-0.140223	0.990115	0.003118	0.008855	-0.001895	0.999959	
6834														0.089262	-0.008748	9.773297	0.990078	0.140260	-0.008511	-0.140238	0.990113	0.003120	0.008865	-0.001896	0.999959	
6835														0.065409	-0.035072	9.796483	0.990075	0.140285	-0.008519	-0.140263	0.990109	0.003137	0.008875	-0.001911	0.999959	
6836														0.088780	-0.009831	9.797696	0.990076	0.140273	-0.008531	-0.140251	0.990111	0.003123	0.008885	-0.001895	0.999959	
6837														0.089188	-0.009330	9.773297	0.990077	0.140268	-0.008523	-0.140246	0.990112	0.003153	0.008881	-0.001926	0.999959	
6838														0.088081	-0.011078	9.822096	0.990078	0.140261	-0.008518	-0.140239	0.990113	0.003153	0.008876	-0.001927	0.999959	
6839														0.088951	-0.035611	9.821392	0.990079	0.140256	-0.008513	-0.140234	0.990113	0.003153	0.008871	-0.001928	0.999959	
6840														0.088265	-0.010653	9.797699	0.990079	0.140257	-0.008508	-0.140235	0.990113	0.003153	0.008866	-0.001929	0.999959	
6841														0.111055	-0.011897	9.871408	0.990075	0.140281	-0.008504	-0.140259	0.990110	0.003137	0.008860	-0.001914	0.999959	
6842														0.064594	-0.036114	9.796485	0.990080	0.140250	-0.008501	-0.140228	0.990114	0.003123	0.008855	-0.001900	0.999959	
6843														0.088910	-0.035259	9.796997	0.990080	0.140245	-0.008509	-0.140223	0.990115	0.003140	0.008865	-0.001915	0.999959	
6844														0.064300	-0.036490	9.796485	0.990080	0.140252	-0.008473	-0.140230	0.990114	0.003136	0.008829	-0.001916	0.999959	
6845														0.063615	-0.011604	9.772794	0.990080	0.140247	-0.008497	-0.140225	0.990115	0.003154	0.008855	-0.001932	0.999959	
6846														0.087595	-0.011469	9.797704	0.990081	0.140239	-0.008508	-0.140217	0.990116	0.003141	0.008865	-0.001916	0.999959	
6847														0.063207	-0.012549	9.797191	0.990082	0.140234	-0.008518	-0.140212	0.990117	0.003142	0.008875	-0.001917	0.999959	
6848														0.088618	-0.036070	9.796997	0.990082	0.140231	-0.008529	-0.140209	0.990117	0.003144	0.008886	-0.001917	0.999959	
6849														0.087115	-0.012638	9.822102	0.990083	0.140226	-0.008537	-0.140204	0.990118	0.003161	0.008896	-0.001933	0.999959	
6850														0.087266	-0.012708	9.822101	0.990085	0.140204	-0.008580	-0.140182	0.990121	0.003136	0.008935	-0.001902	0.999958	
6851														0.063839	-0.012181	9.772791	0.990082	0.140228	-0.008561	-0.140206	0.990117	0.003119	0.008914	-0.001887	0.999958	
6852														0.062647	-0.013714	9.821590	0.990085	0.140211	-0.008556	-0.140190	0.990120	0.003119	0.008909	-0.001889	0.999959	
6853														0.087370	-0.012054	9.797706	0.990088	0.140191	-0.008553	-0.140169	0.990123	0.003104	0.008904	-0.001874	0.999959	
6854														0.088320	-0.036583	9.796998	0.990068	0.140331	-0.008540	-0.140309	0.990103	0.003111	0.008892	-0.001882	0.999959	
6855														0.087761	-0.037458	9.821396	0.990069	0.140325	-0.008537	-0.140304	0.990104	0.003096	0.008887	-0.001867	0.999959	
6856														0.063709	-0.037889	9.796484	0.990067	0.140334	-0.008530	-0.140312	0.990102	0.003112	0.008882	-0.001884	0.999959	
6857														0.088028	-0.037177	9.796998	0.990070	0.140314	-0.008538	-0.140292	0.990105	0.003129	0.008893	-0.001900	0.999959	
6858														0.110904	-0.012587	9.822621	0.990068	0.140330	-0.008551	-0.140308	0.990103	0.003100	0.008902	-0.001870	0.999959	
6859														0.086926	-0.013012	9.797708	0.990066	0.140340	-0.008542	-0.140318	0.990101	0.003130	0.008897	-0.001901	0.999959	
6860														0.062313	-0.014247	9.797195	0.990062	0.140372	-0.008523	-0.140350	0.990097	0.003113	0.008876	-0.001886	0.999959	
6861														0.061677	-0.015054	9.821594	0.990065	0.140352	-0.008533	-0.140330	0.990100	0.003115	0.008886	-0.001887	0.999959	
6862														0.087582	-0.037839	9.796999	0.990067	0.140338	-0.008543	-0.140317	0.990102	0.003117	0.008896	-0.001888	0.999959	
6863														0.086966	-0.012874	9.773313	0.990068	0.140333	-0.008538	-0.140311	0.990103	0.003117	0.008891	-0.001888	0.999959	
6864														0.087024	-0.038868	9.821397	0.990065	0.140349	-0.008563	-0.140327	0.990100	0.003121	0.008916	-0.001888	0.999958	
6865														0.086406	-0.013899	9.797712	0.990066	0.140343	-0.008542	-0.140321	0.990101	0.003119	0.008895	-0.001889	0.999959	
6866														0.062359	-0.014478	9.772798	0.990064	0.140358	-0.008548	-0.140336	0.990099	0.003151	0.008906	-0.001920	0.999958	
6867														0.109206	0.010321	9.823341	0.990067	0.140337	-0.008577	-0.140315	0.990102	0.003124	0.008931	-0.001890	0.999958	
6868														0.111135	-0.012666	9.773831	0.990067	0.140334	-0.008555	-0.140312	0.990102	0.003138	0.008911	-0.001906	0.999958	
6869														0.085477	-0.015379	9.822113	0.990066	0.140344	-0.008535	-0.140321	0.990101	0.003136	0.008890	-0.001907	0.999959	
6870														0.086772	-0.039175	9.797001	0.990067	0.140338	-0.008529	-0.140316	0.990102	0.003135	0.008885	-0.001908	0.999959	
6871														0.085179	-0.015752	9.822115	0.990065	0.140348	-0.008537	-0.140326	0.990100	0.003152	0.008895	-0.001923	0.999959	
6872														0.086213	-0.040352	9.821398	0.990063	0.140362	-0.008546	-0.140340	0.990098	0.003154	0.008904	-0.001923	0.999959	
6873														0.085594	-0.015455	9.797717	0.990064	0.140357	-0.008539	-0.140334	0.990099	0.003169	0.008899	-0.001939	0.999959	
6874														0.062091	-0.041003	9.796482	0.990062	0.140373	-0.008535	-0.140351	0.990097	0.003153	0.008893	-0.001923	0.999959	
6875														0.084463	-0.016999	9.846514	0.990065	0.140352	-0.008564	-0.140330	0.990100	0.003126	0.008918	-0.001893	0.999958	
6876														0.084820	0.009519	9.774037	0.990069	0.140325	-0.008542	-0.140303	0.990104	0.003140	0.008899	-0.001910	0.999959	
6877														0.086181	-0.040209	9.797002	0.990065	0.140350	-0.008537	-0.140328	0.990100	0.003140	0.008893	-0.001911	0.999959	
6878														0.085484	-0.015234	9.773323	0.990064	0.140362	-0.008531	-0.140340	0.990098	0.003139	0.008887	-0.001911	0.999959	
6879														0.060947	-0.016404	9.772804	0.990064	0.140356	-0.008526	-0.140334	0.990099	0.003139	0.008882	-0.001912	0.999959	
6880														0.083733	0.008040	9.798441	0.990061	0.140382	-0.008534	-0.140360	0.990096	0.003156	0.008892	-0.001927	0.999959	
6881														0.109724	-0.014869	9.773844	0.990061	0.140378	-0.008557	-0.140355	0.990096	0.003175	0.008918	-0.001942	0.999958	
6882														0.084772	-0.016705	9.797722	0.990060	0.140386	-0.008540	-0.140364	0.990095	0.003142	0.008896	-0.001912	0.999959	
6883														0.085017	-0.041755	9.821403	0.990061	0.140380	-0.008522	-0.140358	0.990096	0.003125	0.008876	-0.001898	0.999959	
6884														0.085360	-0.041164	9.797006	0.990060	0.140386	-0.008529	-0.140364	0.990095	0.003142	0.008886	-0.001914	0.999959	
6885														0.108066	-0.016647	9.822647	0.990059	0.140395	-0.008511	-0.140373	0.990094	0.003125	0.008865	-0.001899	0.999959	
6886														0.108404	-0.015976	9.798250	0.990055	0.140425	-0.008520	-0.140403	0.990089	0.003127	0.008875	-0.001899	0.999959	
6887														0.083790	-0.017075	9.797730	0.990054	0.140434	-0.008487	-0.140413	0.990088	0.003108	0.008839	-0.001885	0.999959	
6888														0.083564	-0.017077	9.797732	0.990054	0.140433	-0.008486	-0.140412	0.990088	0.003108	0.008839	-0.001885	0.999959	
6889														0.081874	0.006637	9.822851	0.990053	0.140442	-0.008469	-0.140421	0.990087	0.003075	0.008817	-0.001855	0.999959	
6890														0.084871	-0.040713	9.772615	0.990051	0.140451	-0.008493	-0.140429	0.990086	0.003094	0.008843	-0.001871	0.999959	
6891														0.084326	-0.015958	9.748937	0.990050	0.140461	-0.008484	-0.140439	0.990084	0.003125	0.008839	-0.001902	0.999959	
6892														0.083115	-0.017666	9.797734	0.990046	0.140487	-0.008465	-0.140465	0.990081	0.003107	0.008817	-0.001887	0.999959	
6893														0.081992	0.006716	9.798457	0.990051	0.140451	-0.008492	-0.140429	0.990086	0.003096	0.008843	-0.001872	0.999959	
6894														0.082543	-0.018407	9.822133	0.990048	0.140472	-0.008488	-0.140450	0.990083	0.003081	0.008837	-0.001858	0.999959	
6895														0.083932	-0.042117	9.797014	0.990047	0.140481	-0.008483	-0.140460	0.990082	0.003081	0.008832	-0.001858	0.999959	
6896														0.107617	-0.016108	9.773865	0.990048	0.140474	-0.008477	-0.140453	0.990083	0.003080	0.008826	-0.001859	0.999959	
6897														0.083233	-0.017361	9.773339	0.990049	0.140469	-0.008500	-0.140448	0.990083	0.003099	0.008851	-0.001874	0.999959	
6898														0.082588	-0.018253	9.797738	0.990045	0.140497	-0.008466	-0.140475	0.990079	0.003080	0.008815	-0.001860	0.999959	
6899														0.105760	-0.018863	9.847061	0.990050	0.140462	-0.008475	-0.140440	0.990084	0.003097	0.008826	-0.001876	0.999959	
6900														0.106677	-0.017446	9.798267	0.990048	0.140477	-0.008473	-0.140456	0.990082	0.003067	0.008819	-0.001846	0.999959	
6901														0.107573	-0.041822	9.797545	0.990044	0.140502	-0.008467	-0.140481	0.990079	0.003066	0.008814	-0.001846	0.999959	
6902														0.081987	-0.018624	9.797742	0.990046	0.140487	-0.008462	-0.140466	0.990081	0.003067	0.008809	-0.001847	0.999959	
6903														0.081286	0.006352	9.774070	0.990047	0.140482	-0.008457	-0.140460	0.990082	0.003066	0.008804	-0.001848	0.999960	
6904														0.106077	-0.017889	9.798273	0.990045	0.140495	-0.008451	-0.140474	0.990080	0.003066	0.008798	-0.001849	0.999960	
6905														0.081620	-0.019222	9.797744	0.990048	0.140476	-0.008458	-0.140454	0.990082	0.003099	0.008809	-0.001880	0.999959	
6906														0.057235	-0.020405	9.797215	0.990046	0.140491	-0.008471	-0.140470	0.990080	0.003070	0.008818	-0.001850	0.999959	
6907														0.080493	0.004866	9.798470	0.990044	0.140502	-0.008462	-0.140480	0.990079	0.003100	0.008814	-0.001880	0.999959	
6908														0.081323	-0.019739	9.797745	0.990044	0.140504	-0.008444	-0.140482	0.990078	0.003083	0.008793	-0.001866	0.999960	
6909														0.080751	-0.020563	9.822143	0.990047	0.140483	-0.008469	-0.140462	0.990081	0.003087	0.008819	-0.001867	0.999959	
6910														0.081326	-0.019961	9.797745	0.990048	0.140476	-0.008479	-0.140455	0.990082	0.003089	0.008828	-0.001867	0.999959	
6911														0.081327	-0.020107	9.797745	0.990048	0.140471	-0.008489	-0.140449	0.990083	0.003090	0.008838	-0.001867	0.999959	
6912														0.082382	-0.044633	9.797016	0.990046	0.140490	-0.008498	-0.140469	0.990080	0.003092	0.008848	-0.001868	0.999959	
6913														0.105638	-0.019358	9.798275	0.990044	0.140500	-0.008493	-0.140478	0.990079	0.003092	0.008843	-0.001868	0.999959	
6914														0.080683	-0.021447	9.822142	0.990046	0.140489	-0.008499	-0.140467	0.990080	0.003124	0.008854	-0.001900	0.999959	
6915														0.104588	0.004580	9.799003	0.990044	0.140498	-0.008528	-0.140477	0.990079	0.003098	0.008878	-0.001869	0.999959	
6916														0.105219	-0.020621	9.822670	0.990045	0.140494	-0.008536	-0.140472	0.990080	0.003114	0.008889	-0.001884	0.999959	
6917														0.080686	-0.021814	9.822141	0.990048	0.140473	-0.008518	-0.140451	0.990083	0.003098	0.008868	-0.001870	0.999959	
6918														0.081386	-0.020463	9.773349	0.990047	0.140482	-0.008496	-0.140460	0.990081	0.003111	0.008849	-0.001887	0.999959	
6919														0.080665	-0.021441	9.797747	0.990045	0.140492	-0.008491	-0.140470	0.990080	0.003111	0.008844	-0.001888	0.999959	
6920														0.079456	0.002792	9.798480	0.990044	0.140505	-0.008485	-0.140483	0.990078	0.003111	0.008838	-0.001888	0.999959	
6921														0.079384	0.002496	9.798480	0.990044	0.140500	-0.008492	-0.140478	0.990079	0.003143	0.008849	-0.001919	0.999959	
6922														0.080294	-0.022033	9.797749	0.990042	0.140515	-0.008474	-0.140494	0.990077	0.003111	0.008827	-0.001889	0.999959	
6923														0.079568	-0.022937	9.822148	0.990041	0.140526	-0.008466	-0.140504	0.990075	0.003141	0.008823	-0.001920	0.999959	
6924														0.079994	-0.022401	9.797751	0.990036	0.140561	-0.008477	-0.140540	0.990070	0.003127	0.008832	-0.001905	0.999959	
6925														0.079432	0.002665	9.774087	0.990038	0.140541	-0.008487	-0.140519	0.990073	0.003129	0.008842	-0.001906	0.999959	
6926														0.079997	-0.022694	9.797750	0.990037	0.140548	-0.008495	-0.140526	0.990072	0.003147	0.008853	-0.001922	0.999959	
6927														0.104459	-0.021866	9.798282	0.990036	0.140558	-0.008520	-0.140536	0.990071	0.003150	0.008878	-0.001921	0.999959	
6928														0.079647	-0.023813	9.822145	0.990033	0.140580	-0.008530	-0.140558	0.990067	0.003152	0.008888	-0.001922	0.999959	
6929														0.081636	-0.046749	9.772616	0.990033	0.140574	-0.008526	-0.140552	0.990068	0.003137	0.008882	-0.001907	0.999959	
6930														0.080072	-0.023274	9.797748	0.990033	0.140575	-0.008549	-0.140553	0.990068	0.003156	0.008908	-0.001923	0.999958	
6931														0.103398	0.001785	9.799017	0.990032	0.140586	-0.008540	-0.140563	0.990067	0.003186	0.008903	-0.001953	0.999958	
6932														0.104239	-0.022816	9.798282	0.990028	0.140612	-0.008521	-0.140590	0.990063	0.003168	0.008882	-0.001939	0.999959	
6933														0.079125	-0.024773	9.822147	0.990027	0.140622	-0.008514	-0.140600	0.990061	0.003183	0.008877	-0.001954	0.999959	
6934														0.102798	0.001194	9.799023	0.990027	0.140622	-0.008508	-0.140600	0.990061	0.003183	0.008871	-0.001955	0.999959	
6935														0.078263	-0.000006	9.798490	0.990025	0.140632	-0.008503	-0.140610	0.990060	0.003183	0.008866	-0.001955	0.999959	
6936														0.104070	-0.022720	9.773891	0.990024	0.140646	-0.008497	-0.140623	0.990058	0.003183	0.008861	-0.001957	0.999959	
6937														0.078114	-0.000301	9.798491	0.990024	0.140641	-0.008522	-0.140618	0.990059	0.003187	0.008886	-0.001957	0.999959	
6938														0.079184	-0.024899	9.797751	0.990020	0.140669	-0.008515	-0.140647	0.990055	0.003202	0.008881	-0.001972	0.999959	
6939														0.079536	-0.024210	9.773355	0.990023	0.140648	-0.008514	-0.140626	0.990058	0.003172	0.008875	-0.001943	0.999959	
6940														0.078378	-0.025736	9.822150	0.990021	0.140664	-0.008509	-0.140641	0.990056	0.003171	0.008870	-0.001943	0.999959	
6941														0.103195	-0.024142	9.798290	0.990024	0.140644	-0.008517	-0.140621	0.990058	0.003188	0.008881	-0.001959	0.999959	
6942														0.103049	-0.024368	9.798291	0.990024	0.140642	-0.008497	-0.140620	0.990059	0.003187	0.008861	-0.001960	0.999959	
6943														0.078439	-0.025500	9.797756	0.990025	0.140637	-0.008494	-0.140614	0.990059	0.003171	0.008855	-0.001945	0.999959	
6944														0.102674	-0.024518	9.798295	0.990023	0.140650	-0.008488	-0.140628	0.990057	0.003171	0.008850	-0.001946	0.999959	
6945														0.078061	-0.025573	9.797758	0.990022	0.140659	-0.008471	-0.140637	0.990056	0.003139	0.008829	-0.001916	0.999959	
6946														0.101864	-0.025353	9.822694	0.990022	0.140656	-0.008494	-0.140633	0.990057	0.003157	0.008854	-0.001931	0.999959	
6947														0.079571	-0.049632	9.772618	0.990025	0.140636	-0.008486	-0.140613	0.990059	0.003188	0.008850	-0.001963	0.999959	
6948														0.077204	-0.001101	9.774105	0.990026	0.140633	-0.008468	-0.140611	0.990060	0.003171	0.008829	-0.001949	0.999959	
6949														0.076547	-0.002014	9.798503	0.990022	0.140659	-0.008475	-0.140636	0.990056	0.003187	0.008839	-0.001964	0.999959	
6950														0.075964	-0.003000	9.822900	0.990019	0.140681	-0.008470	-0.140658	0.990053	0.003187	0.008834	-0.001964	0.999959	
6951														0.077471	-0.026684	9.797760	0.990019	0.140675	-0.008482	-0.140653	0.990054	0.003174	0.008844	-0.001949	0.999959	
6952														0.077470	-0.026756	9.797760	0.990018	0.140682	-0.008492	-0.140660	0.990053	0.003176	0.008854	-0.001950	0.999959	
6953														0.100780	-0.001537	9.799044	0.990017	0.140693	-0.008500	-0.140670	0.990051	0.003193	0.008864	-0.001965	0.999959	
6954														0.077470	-0.027045	9.797759	0.990015	0.140706	-0.008513	-0.140684	0.990049	0.003164	0.008874	-0.001935	0.999959	
6955														0.101274	-0.026900	9.822696	0.990018	0.140686	-0.008505	-0.140664	0.990052	0.003195	0.008870	-0.001966	0.999959	
6956														0.077174	-0.027419	9.797760	0.990014	0.140716	-0.008486	-0.140693	0.990048	0.003177	0.008849	-0.001952	0.999959	
6957														0.077024	-0.027493	9.797761	0.990016	0.140695	-0.008496	-0.140673	0.990051	0.003179	0.008859	-0.001952	0.999959	
6958														0.077607	-0.026868	9.773364	0.990014	0.140709	-0.008521	-0.140687	0.990049	0.003183	0.008884	-0.001952	0.999959	
6959														0.075513	-0.004248	9.822903	0.990013	0.140719	-0.008514	-0.140697	0.990048	0.003197	0.008879	-0.001968	0.999959	
6960														0.100330	-0.002561	9.799049	0.990013	0.140717	-0.008526	-0.140694	0.990048	0.003184	0.008890	-0.001953	0.999959	
6961														0.076368	-0.028850	9.822158	0.990014	0.140711	-0.008506	-0.140689	0.990049	0.003182	0.008869	-0.001954	0.999959	
6962														0.100105	-0.002709	9.799051	0.990015	0.140706	-0.008533	-0.140683	0.990050	0.003170	0.008894	-0.001938	0.999959	
6963														0.076805	-0.028376	9.797761	0.990018	0.140686	-0.008524	-0.140663	0.990052	0.003201	0.008890	-0.001970	0.999959	
6964														0.076159	-0.003447	9.774113	0.990013	0.140717	-0.008536	-0.140694	0.990048	0.003187	0.008899	-0.001954	0.999958	
6965														0.076730	-0.028667	9.797760	0.990014	0.140711	-0.008546	-0.140689	0.990049	0.003189	0.008909	-0.001955	0.999958	
6966														0.076223	-0.029586	9.822156	0.990014	0.140712	-0.008555	-0.140690	0.990049	0.003191	0.008919	-0.001955	0.999958	
6967														0.075576	-0.004585	9.798510	0.990017	0.140692	-0.008550	-0.140669	0.990052	0.003191	0.008914	-0.001956	0.999958	
6968														0.100395	-0.002819	9.774656	0.990016	0.140698	-0.008563	-0.140676	0.990051	0.003178	0.008924	-0.001942	0.999958	
6969														0.075998	-0.029807	9.822158	0.990012	0.140723	-0.008559	-0.140700	0.990047	0.003162	0.008919	-0.001926	0.999958	
6970														0.100380	-0.028736	9.822700	0.990016	0.140694	-0.008586	-0.140672	0.990051	0.003151	0.008944	-0.001912	0.999958	
6971														0.076000	-0.030028	9.822157	0.990014	0.140705	-0.008577	-0.140682	0.990050	0.003181	0.008939	-0.001943	0.999958	
6972														0.099220	-0.004650	9.823451	0.990010	0.140735	-0.008592	-0.140713	0.990045	0.003137	0.008948	-0.001897	0.999958	
6973														0.099725	-0.003870	9.799054	0.990011	0.140730	-0.008600	-0.140708	0.990046	0.003154	0.008959	-0.001913	0.999958	
6974														0.076282	-0.029618	9.797761	0.990010	0.140737	-0.008578	-0.140715	0.990045	0.003168	0.008938	-0.001929	0.999958	
6975														0.098345	0.019985	9.799809	0.990010	0.140732	-0.008588	-0.140710	0.990046	0.003170	0.008949	-0.001929	0.999958	
6976														0.075116	-0.031539	9.846554	0.990009	0.140742	-0.008598	-0.140719	0.990044	0.003171	0.008959	-0.001929	0.999958	
6977														0.099283	-0.004687	9.799059	0.990010	0.140736	-0.008578	-0.140714	0.990045	0.003169	0.008939	-0.001930	0.999958	
6978														0.075989	-0.030285	9.797761	0.990012	0.140721	-0.008619	-0.140699	0.990047	0.003175	0.008980	-0.001930	0.999958	
6979														0.099361	-0.004979	9.799058	0.990010	0.140731	-0.008613	-0.140708	0.990046	0.003174	0.008974	-0.001931	0.999958	
6980														0.075992	-0.030505	9.797761	0.990014	0.140702	-0.008626	-0.140680	0.990050	0.003162	0.008985	-0.001917	0.999958	
6981														0.098702	-0.005906	9.823455	0.990013	0.140712	-0.008620	-0.140689	0.990049	0.003161	0.008980	-0.001917	0.999958	
6982														0.075694	-0.030731	9.797762	0.990013	0.140717	-0.008600	-0.140694	0.990048	0.003160	0.008959	-0.001918	0.999958	
6983														0.074455	-0.006429	9.798517	0.990013	0.140717	-0.008600	-0.140694	0.990048	0.003160	0.008959	-0.001918	0.999958	
6984														0.075618	-0.030803	9.797763	0.990010	0.140733	-0.008627	-0.140710	0.990046	0.003148	0.008984	-0.001903	0.999958	
6985														0.098399	-0.006272	9.823458	0.990009	0.140743	-0.008620	-0.140720	0.990044	0.003163	0.008979	-0.001918	0.999958	
6986														0.075623	-0.031245	9.797761	0.990012	0.140715	-0.008643	-0.140692	0.990048	0.003182	0.009005	-0.001934	0.999958	
6987														0.075477	-0.031471	9.797761	0.990011	0.140724	-0.008608	-0.140701	0.990047	0.003178	0.008969	-0.001935	0.999958	
6988														0.100003	-0.029844	9.773914	0.990012	0.140724	-0.008586	-0.140702	0.990047	0.003192	0.008949	-0.001952	0.999958	
6989														0.073940	-0.007470	9.798520	0.990012	0.140719	-0.008613	-0.140697	0.990048	0.003180	0.008974	-0.001936	0.999958	
6990														0.100077	-0.030058	9.773913	0.990010	0.140734	-0.008638	-0.140711	0.990046	0.003183	0.009000	-0.001936	0.999958	
6991														0.099566	-0.031056	9.798308	0.990008	0.140744	-0.008631	-0.140721	0.990044	0.003198	0.008995	-0.001952	0.999958	
6992														0.097810	-0.007682	9.823463	0.990006	0.140758	-0.008625	-0.140735	0.990042	0.003198	0.008990	-0.001952	0.999958	
6993														0.073711	-0.007979	9.798522	0.990008	0.140751	-0.008609	-0.140729	0.990043	0.003166	0.008969	-0.001923	0.999958	
6994														0.097942	-0.006899	9.799071	0.990006	0.140760	-0.008618	-0.140738	0.990042	0.003167	0.008978	-0.001923	0.999958	
6995														0.099037	-0.031347	9.798312	0.990007	0.140755	-0.008630	-0.140733	0.990043	0.003154	0.008988	-0.001908	0.999958	
6996														0.074071	-0.007414	9.774127	0.990008	0.140746	-0.008639	-0.140723	0.990044	0.003170	0.008999	-0.001923	0.999958	
6997														0.098968	-0.031718	9.798312	0.990011	0.140725	-0.008634	-0.140703	0.990047	0.003170	0.008994	-0.001924	0.999958	
6998														0.099332	-0.031010	9.773917	0.990010	0.140734	-0.008630	-0.140711	0.990046	0.003155	0.008988	-0.001909	0.999958	
6999														0.097643	-0.007486	9.799073	0.990008	0.140743	-0.008640	-0.140721	0.990044	0.003156	0.008998	-0.001909	0.999958	
7000														0.074283	-0.033092	9.797765	0.990009	0.140738	-0.008635	-0.140716	0.990045	0.003156	0.008993	-0.001910	0.999958	
7001														0.073109	-0.008861	9.798526	0.990008	0.140748	-0.008645	-0.140726	0.990044	0.003158	0.009003	-0.001910	0.999958	
7002														0.073616	-0.034093	9.822162	0.990003	0.140783	-0.008641	-0.140761	0.990039	0.003142	0.008997	-0.001895	0.999958	
7003														0.073027	-0.008999	9.798526	0.990001	0.140793	-0.008666	-0.140771	0.990037	0.003146	0.009022	-0.001894	0.999958	
7004														0.098513	-0.032438	9.798314	0.990004	0.140776	-0.008661	-0.140754	0.990040	0.003146	0.009018	-0.001895	0.999958	
7005														0.073978	-0.033524	9.797766	0.990002	0.140785	-0.008659	-0.140763	0.990038	0.003115	0.009012	-0.001865	0.999958	
7006														0.073314	-0.034458	9.822163	0.990003	0.140778	-0.008651	-0.140756	0.990039	0.003145	0.009008	-0.001896	0.999958	
7007														0.072581	-0.009595	9.798529	0.990004	0.140773	-0.008646	-0.140750	0.990040	0.003145	0.009003	-0.001897	0.999958	
7008														0.121199	-0.007570	9.799631	0.990002	0.140791	-0.008640	-0.140769	0.990037	0.003145	0.008997	-0.001898	0.999958	
7009														0.073827	-0.033483	9.773373	0.990000	0.140801	-0.008620	-0.140778	0.990036	0.003143	0.008977	-0.001898	0.999958	
7010														0.096150	-0.009811	9.823478	0.990000	0.140804	-0.008674	-0.140781	0.990036	0.003166	0.009033	-0.001913	0.999957	
7011														0.072434	-0.010328	9.798529	0.989998	0.140814	-0.008668	-0.140791	0.990034	0.003165	0.009028	-0.001913	0.999957	
7012														0.071695	-0.011342	9.822926	0.989998	0.140817	-0.008646	-0.140794	0.990034	0.003179	0.009008	-0.001930	0.999958	
7013														0.096964	-0.008899	9.774687	0.989996	0.140827	-0.008656	-0.140804	0.990032	0.003181	0.009018	-0.001930	0.999957	
7014														0.072579	-0.036091	9.822162	0.989998	0.140819	-0.008651	-0.140796	0.990033	0.003180	0.009012	-0.001930	0.999958	
7015														0.072948	-0.035451	9.797767	0.989998	0.140814	-0.008646	-0.140791	0.990034	0.003180	0.009007	-0.001931	0.999958	
7016														0.097775	-0.033719	9.773924	0.990000	0.140804	-0.008656	-0.140782	0.990036	0.003181	0.009017	-0.001931	0.999957	
7017														0.094965	0.014173	9.799853	0.989998	0.140814	-0.008652	-0.140791	0.990034	0.003166	0.009012	-0.001916	0.999958	
