// Start Time: Unknown: 
// Update Rate: 60.0Hz 
// Filter Profile: human (46.1) 
// Firmware Version: 4.6.0
PacketCounter	SampleTimeFine	Year	Month	Day	Second	UTC_Nano	UTC_Year	UTC_Month	UTC_Day	UTC_Hour	UTC_Minute	UTC_Second	UTC_Valid	Acc_X	Acc_Y	Acc_Z	Mat[1][1]	Mat[2][1]	Mat[3][1]	Mat[1][2]	Mat[2][2]	Mat[3][2]	Mat[1][3]	Mat[2][3]	Mat[3][3] 
3598														-0.061719	0.088327	9.801238	-0.995222	0.097448	-0.006032	-0.097492	-0.995207	0.007661	-0.005257	0.008212	0.999952	
3599														-0.046330	0.059218	9.787542	-0.995223	0.097442	-0.006029	-0.097487	-0.995207	0.007647	-0.005255	0.008198	0.999953	
3600														-0.046759	0.073780	9.772588	-0.995226	0.097406	-0.006041	-0.097451	-0.995211	0.007647	-0.005267	0.008200	0.999953	
3601														-0.047623	0.074375	9.787224	-0.995224	0.097431	-0.006069	-0.097476	-0.995209	0.007645	-0.005295	0.008200	0.999952	
3602														-0.063579	0.103621	9.786265	-0.995223	0.097439	-0.006084	-0.097485	-0.995208	0.007660	-0.005308	0.008217	0.999952	
3603														-0.048603	0.075187	9.787213	-0.995223	0.097433	-0.006098	-0.097478	-0.995208	0.007676	-0.005321	0.008233	0.999952	
3604														-0.048691	0.089443	9.757615	-0.995223	0.097441	-0.006092	-0.097487	-0.995207	0.007647	-0.005318	0.008204	0.999952	
3605														-0.049823	0.090120	9.786895	-0.995223	0.097436	-0.006119	-0.097482	-0.995208	0.007630	-0.005346	0.008190	0.999952	
3606														-0.034821	0.075877	9.772896	-0.995224	0.097430	-0.006103	-0.097476	-0.995209	0.007648	-0.005328	0.008207	0.999952	
3607														-0.050505	0.090863	9.786884	-0.995223	0.097440	-0.006118	-0.097486	-0.995207	0.007663	-0.005341	0.008223	0.999952	
3608														-0.049764	0.047312	9.787821	-0.995220	0.097465	-0.006131	-0.097511	-0.995205	0.007663	-0.005355	0.008224	0.999952	
3609														-0.050936	0.076888	9.787188	-0.995223	0.097431	-0.006129	-0.097476	-0.995208	0.007665	-0.005353	0.008226	0.999952	
3610														-0.051020	0.091139	9.757588	-0.995223	0.097439	-0.006140	-0.097485	-0.995208	0.007649	-0.005366	0.008212	0.999952	
3611														-0.051340	0.076951	9.772540	-0.995222	0.097450	-0.006137	-0.097495	-0.995207	0.007636	-0.005363	0.008198	0.999952	
3612														-0.052387	0.092119	9.786863	-0.995222	0.097445	-0.006134	-0.097490	-0.995207	0.007637	-0.005361	0.008199	0.999952	
3613														-0.037304	0.077952	9.772871	-0.995221	0.097455	-0.006134	-0.097500	-0.995206	0.007654	-0.005359	0.008215	0.999952	
3614														-0.044750	0.074385	9.772777	-0.995221	0.097456	-0.006133	-0.097502	-0.995206	0.007663	-0.005356	0.008224	0.999952	
3615														-0.052196	0.070818	9.772684	-0.995221	0.097458	-0.006131	-0.097504	-0.995206	0.007672	-0.005354	0.008233	0.999952	
3616														-0.053946	0.093688	9.801485	-0.995220	0.097469	-0.006125	-0.097514	-0.995205	0.007628	-0.005352	0.008188	0.999952	
3617														-0.053975	0.093677	9.786839	-0.995222	0.097448	-0.006142	-0.097494	-0.995207	0.007673	-0.005365	0.008235	0.999952	
3618														-0.038907	0.065180	9.787811	-0.995219	0.097473	-0.006137	-0.097519	-0.995204	0.007644	-0.005362	0.008206	0.999952	
3619														-0.039780	0.065558	9.802449	-0.995218	0.097483	-0.006179	-0.097529	-0.995203	0.007625	-0.005406	0.008191	0.999952	
3620														-0.054296	0.079077	9.757862	-0.995217	0.097492	-0.006177	-0.097538	-0.995203	0.007627	-0.005404	0.008193	0.999952	
3621														-0.070290	0.079964	9.801438	-0.995218	0.097486	-0.006176	-0.097532	-0.995203	0.007644	-0.005401	0.008210	0.999952	
3622														-0.055327	0.080202	9.772492	-0.995218	0.097480	-0.006191	-0.097526	-0.995203	0.007659	-0.005415	0.008226	0.999952	
3623														-0.055257	0.094592	9.742886	-0.995217	0.097491	-0.006159	-0.097537	-0.995202	0.007664	-0.005382	0.008228	0.999952	
3624														-0.056134	0.081184	9.787125	-0.995221	0.097455	-0.006172	-0.097501	-0.995206	0.007665	-0.005395	0.008230	0.999952	
3625														-0.056790	0.081868	9.801761	-0.995220	0.097465	-0.006156	-0.097511	-0.995205	0.007683	-0.005378	0.008246	0.999952	
3626														-0.056181	0.081227	9.757834	-0.995222	0.097443	-0.006198	-0.097490	-0.995207	0.007665	-0.005421	0.008232	0.999951	
3627														-0.056985	0.081834	9.772469	-0.995219	0.097469	-0.006183	-0.097515	-0.995204	0.007683	-0.005404	0.008249	0.999951	
3628														-0.042855	0.082937	9.787452	-0.995222	0.097448	-0.006165	-0.097494	-0.995206	0.007687	-0.005386	0.008251	0.999951	
3629														-0.058505	0.083445	9.816383	-0.995222	0.097442	-0.006177	-0.097489	-0.995207	0.007686	-0.005398	0.008252	0.999951	
3630														-0.057351	0.053835	9.787745	-0.995220	0.097467	-0.006175	-0.097513	-0.995205	0.007688	-0.005396	0.008253	0.999951	
3631														-0.044246	0.098392	9.787116	-0.995219	0.097477	-0.006171	-0.097523	-0.995204	0.007674	-0.005394	0.008239	0.999952	
3632														-0.058362	0.068843	9.787415	-0.995221	0.097455	-0.006167	-0.097501	-0.995206	0.007661	-0.005391	0.008226	0.999952	
3633														-0.044869	0.084512	9.802074	-0.995217	0.097495	-0.006182	-0.097541	-0.995202	0.007676	-0.005404	0.008242	0.999951	
3634														-0.048435	0.084314	9.787343	-0.995217	0.097489	-0.006179	-0.097535	-0.995203	0.007670	-0.005402	0.008236	0.999951	
3635														-0.052001	0.084115	9.772612	-0.995218	0.097483	-0.006176	-0.097529	-0.995203	0.007664	-0.005399	0.008230	0.999952	
3636														-0.045981	0.099650	9.787095	-0.995215	0.097508	-0.006190	-0.097554	-0.995201	0.007664	-0.005413	0.008231	0.999951	
3637														-0.045923	0.099555	9.772451	-0.995216	0.097503	-0.006171	-0.097549	-0.995201	0.007652	-0.005395	0.008217	0.999952	
3638														-0.059977	0.055681	9.787719	-0.995217	0.097497	-0.006182	-0.097543	-0.995202	0.007637	-0.005407	0.008203	0.999952	
3639														-0.046543	0.085528	9.787413	-0.995214	0.097523	-0.006178	-0.097569	-0.995200	0.007623	-0.005405	0.008189	0.999952	
3640														-0.061502	0.071004	9.802026	-0.995215	0.097517	-0.006191	-0.097563	-0.995200	0.007623	-0.005418	0.008190	0.999952	
3641														-0.032752	0.072146	9.802725	-0.995215	0.097511	-0.006219	-0.097557	-0.995201	0.007621	-0.005446	0.008191	0.999952	
3642														-0.062463	0.086139	9.787045	-0.995214	0.097521	-0.006207	-0.097568	-0.995199	0.007669	-0.005429	0.008238	0.999951	
3643														-0.062255	0.086193	9.772400	-0.995215	0.097516	-0.006186	-0.097562	-0.995200	0.007642	-0.005411	0.008209	0.999952	
3644														-0.062769	0.086737	9.787037	-0.995212	0.097564	-0.005934	-0.097608	-0.995195	0.007677	-0.005157	0.008220	0.999953	
3645														-0.033722	0.087962	9.787740	-0.995214	0.097543	-0.005932	-0.097587	-0.995197	0.007679	-0.005154	0.008221	0.999953	
3646														-0.062153	0.072052	9.758078	-0.995212	0.097555	-0.005928	-0.097599	-0.995196	0.007666	-0.005151	0.008208	0.999953	
3647														-0.049037	0.087980	9.787379	-0.995211	0.097565	-0.005940	-0.097609	-0.995195	0.007666	-0.005164	0.008209	0.999953	
3648														-0.063901	0.087776	9.787021	-0.995213	0.097548	-0.005905	-0.097592	-0.995197	0.007656	-0.005130	0.008196	0.999953	
3649														-0.034701	0.088784	9.787729	-0.995212	0.097558	-0.005886	-0.097601	-0.995196	0.007644	-0.005112	0.008182	0.999953	
3650														-0.048361	0.059128	9.773393	-0.995210	0.097586	-0.005888	-0.097630	-0.995193	0.007676	-0.005110	0.008214	0.999953	
3651														-0.049085	0.074137	9.773057	-0.995209	0.097588	-0.005884	-0.097632	-0.995193	0.007662	-0.005108	0.008200	0.999953	
3652														-0.065307	0.103528	9.786671	-0.995213	0.097553	-0.005897	-0.097597	-0.995197	0.007662	-0.005121	0.008201	0.999953	
3653														-0.050256	0.089145	9.772717	-0.995212	0.097559	-0.005891	-0.097603	-0.995196	0.007633	-0.005118	0.008172	0.999954	
3654														-0.036284	0.090047	9.787711	-0.995213	0.097554	-0.005889	-0.097598	-0.995197	0.007635	-0.005116	0.008173	0.999954	
3655														-0.065145	0.074517	9.772686	-0.995212	0.097565	-0.005901	-0.097609	-0.995196	0.007635	-0.005128	0.008174	0.999953	
3656														-0.066331	0.075460	9.801961	-0.995215	0.097527	-0.005914	-0.097570	-0.995199	0.007635	-0.005141	0.008175	0.999953	
3657														-0.050889	0.075144	9.758395	-0.995215	0.097535	-0.005895	-0.097579	-0.995199	0.007623	-0.005123	0.008162	0.999954	
3658														-0.050910	0.060652	9.758727	-0.995217	0.097513	-0.005936	-0.097557	-0.995201	0.007605	-0.005166	0.008147	0.999953	
3659														-0.038703	0.077318	9.817308	-0.995216	0.097519	-0.005935	-0.097563	-0.995200	0.007621	-0.005164	0.008164	0.999953	
3660														-0.053608	0.105808	9.786992	-0.995215	0.097530	-0.005901	-0.097574	-0.995199	0.007611	-0.005130	0.008150	0.999954	
3661														-0.051809	0.061392	9.758717	-0.995217	0.097505	-0.005911	-0.097548	-0.995202	0.007595	-0.005142	0.008136	0.999954	
3662														-0.039531	0.077916	9.817300	-0.995220	0.097482	-0.005922	-0.097525	-0.995204	0.007580	-0.005155	0.008122	0.999954	
3663														-0.053860	0.091437	9.772676	-0.995219	0.097494	-0.005922	-0.097537	-0.995203	0.007597	-0.005153	0.008138	0.999954	
3664														-0.053360	0.076768	9.758369	-0.995217	0.097505	-0.005917	-0.097548	-0.995202	0.007584	-0.005149	0.008125	0.999954	
3665														-0.054348	0.063332	9.802624	-0.995218	0.097503	-0.005915	-0.097546	-0.995202	0.007586	-0.005147	0.008126	0.999954	
3666														-0.039623	0.078128	9.773365	-0.995217	0.097515	-0.005899	-0.097559	-0.995201	0.007604	-0.005129	0.008143	0.999954	
3667														-0.056173	0.107916	9.801600	-0.995214	0.097539	-0.005910	-0.097582	-0.995199	0.007589	-0.005142	0.008129	0.999954	
3668														-0.055181	0.064298	9.802613	-0.995213	0.097552	-0.005895	-0.097596	-0.995197	0.007607	-0.005125	0.008146	0.999954	
3669														-0.068698	0.062912	9.743684	-0.995212	0.097560	-0.005923	-0.097604	-0.995196	0.007605	-0.005152	0.008147	0.999954	
3670														-0.041939	0.094424	9.787648	-0.995211	0.097568	-0.005938	-0.097612	-0.995195	0.007620	-0.005166	0.008163	0.999953	
3671														-0.056899	0.080121	9.802257	-0.995213	0.097547	-0.005936	-0.097591	-0.995197	0.007637	-0.005163	0.008180	0.999953	
3672														-0.041740	0.080424	9.773338	-0.995211	0.097573	-0.005922	-0.097617	-0.995194	0.007671	-0.005145	0.008212	0.999953	
3673														-0.056174	0.065940	9.773308	-0.995214	0.097538	-0.005922	-0.097582	-0.995198	0.007703	-0.005142	0.008244	0.999953	
3674														-0.057496	0.095660	9.772615	-0.995212	0.097562	-0.005950	-0.097606	-0.995195	0.007701	-0.005170	0.008245	0.999953	
3675														-0.058323	0.096137	9.787251	-0.995212	0.097556	-0.005944	-0.097601	-0.995196	0.007672	-0.005167	0.008216	0.999953	
3676														-0.057750	0.066935	9.787936	-0.995213	0.097552	-0.005940	-0.097596	-0.995197	0.007659	-0.005164	0.008202	0.999953	
3677														-0.044303	0.082498	9.802598	-0.995213	0.097548	-0.005950	-0.097592	-0.995197	0.007644	-0.005176	0.008188	0.999953	
3678														-0.044223	0.082313	9.787955	-0.995212	0.097558	-0.005931	-0.097602	-0.995196	0.007632	-0.005158	0.008174	0.999953	
3679														-0.044450	0.082536	9.787952	-0.995210	0.097584	-0.005928	-0.097628	-0.995194	0.007634	-0.005155	0.008176	0.999953	
3680														-0.059042	0.053366	9.802908	-0.995209	0.097593	-0.005955	-0.097637	-0.995193	0.007616	-0.005183	0.008161	0.999953	
3681														-0.060121	0.096906	9.772587	-0.995210	0.097574	-0.005969	-0.097618	-0.995195	0.007632	-0.005196	0.008178	0.999953	
3682														-0.045365	0.068784	9.788285	-0.995211	0.097569	-0.005966	-0.097613	-0.995195	0.007634	-0.005192	0.008180	0.999953	
3683														-0.060746	0.083419	9.787561	-0.995210	0.097579	-0.005967	-0.097623	-0.995194	0.007666	-0.005190	0.008211	0.999953	
3684														-0.045440	0.069267	9.773637	-0.995208	0.097605	-0.005933	-0.097649	-0.995191	0.007655	-0.005157	0.008198	0.999953	
3685														-0.060231	0.069190	9.773261	-0.995206	0.097616	-0.005934	-0.097660	-0.995190	0.007687	-0.005155	0.008230	0.999953	
3686														-0.047165	0.099773	9.787571	-0.995207	0.097608	-0.005934	-0.097653	-0.995191	0.007704	-0.005153	0.008246	0.999953	
3687														-0.047483	0.085694	9.802555	-0.995205	0.097634	-0.005943	-0.097678	-0.995188	0.007673	-0.005165	0.008217	0.999953	
3688														-0.047036	0.071088	9.788260	-0.995203	0.097646	-0.005945	-0.097691	-0.995187	0.007721	-0.005162	0.008264	0.999953	
3689														-0.061666	0.070744	9.773241	-0.995206	0.097624	-0.005955	-0.097668	-0.995189	0.007705	-0.005174	0.008250	0.999953	
3690														-0.062336	0.085754	9.772886	-0.995206	0.097620	-0.005926	-0.097664	-0.995189	0.007741	-0.005142	0.008283	0.999952	
3691														-0.048256	0.072697	9.802886	-0.995207	0.097613	-0.005939	-0.097657	-0.995190	0.007741	-0.005155	0.008284	0.999952	
3692														-0.048632	0.072919	9.802883	-0.995207	0.097607	-0.005935	-0.097651	-0.995191	0.007727	-0.005152	0.008270	0.999953	
3693														-0.049301	0.087632	9.802529	-0.995208	0.097600	-0.005914	-0.097645	-0.995192	0.007700	-0.005134	0.008241	0.999953	
3694														-0.049139	0.087441	9.787887	-0.995210	0.097581	-0.005912	-0.097626	-0.995193	0.007702	-0.005132	0.008243	0.999953	
3695														-0.049146	0.073250	9.788234	-0.995210	0.097576	-0.005943	-0.097620	-0.995194	0.007731	-0.005160	0.008274	0.999952	
3696														-0.065127	0.102287	9.787146	-0.995207	0.097615	-0.005936	-0.097660	-0.995190	0.007686	-0.005157	0.008229	0.999953	
3697														-0.049746	0.073543	9.788229	-0.995207	0.097611	-0.005902	-0.097655	-0.995191	0.007692	-0.005123	0.008231	0.999953	
3698														-0.050047	0.073840	9.788225	-0.995207	0.097606	-0.005930	-0.097651	-0.995191	0.007690	-0.005151	0.008233	0.999953	
3699														-0.050872	0.088775	9.787866	-0.995210	0.097586	-0.005912	-0.097630	-0.995193	0.007694	-0.005133	0.008234	0.999953	
3700														-0.051114	0.074780	9.802856	-0.995213	0.097551	-0.005925	-0.097595	-0.995196	0.007695	-0.005146	0.008236	0.999953	
3701														-0.050709	0.074392	9.773573	-0.995215	0.097530	-0.005922	-0.097574	-0.995199	0.007696	-0.005143	0.008237	0.999953	
3702														-0.050606	0.088716	9.743935	-0.995217	0.097508	-0.005907	-0.097553	-0.995200	0.007715	-0.005126	0.008254	0.999953	
3703														-0.036526	0.075527	9.773946	-0.995216	0.097519	-0.005902	-0.097563	-0.995200	0.007701	-0.005123	0.008240	0.999953	
3704														-0.037432	0.090609	9.773584	-0.995218	0.097498	-0.005935	-0.097543	-0.995201	0.007746	-0.005152	0.008287	0.999952	
3705														-0.051614	0.061391	9.773912	-0.995219	0.097493	-0.005933	-0.097537	-0.995202	0.007747	-0.005149	0.008289	0.999952	
3706														-0.038051	0.077061	9.788572	-0.995218	0.097502	-0.005913	-0.097546	-0.995201	0.007735	-0.005131	0.008275	0.999953	
3707														-0.053051	0.091184	9.773188	-0.995217	0.097512	-0.005927	-0.097556	-0.995200	0.007750	-0.005143	0.008291	0.999952	
3708														-0.038261	0.077309	9.773926	-0.995217	0.097506	-0.005907	-0.097551	-0.995200	0.007738	-0.005125	0.008277	0.999953	
3709														-0.054049	0.092125	9.787818	-0.995218	0.097501	-0.005922	-0.097545	-0.995201	0.007753	-0.005137	0.008294	0.999952	
3710														-0.039804	0.078672	9.803195	-0.995218	0.097496	-0.005934	-0.097540	-0.995201	0.007753	-0.005150	0.008295	0.999952	
3711														-0.054953	0.092715	9.787808	-0.995217	0.097504	-0.005945	-0.097548	-0.995201	0.007737	-0.005163	0.008280	0.999952	
3712														-0.039842	0.078641	9.773909	-0.995216	0.097514	-0.005949	-0.097559	-0.995199	0.007785	-0.005161	0.008328	0.999952	
3713														-0.055576	0.079395	9.802796	-0.995220	0.097478	-0.005945	-0.097523	-0.995203	0.007786	-0.005158	0.008329	0.999952	
3714														-0.054076	0.063859	9.759239	-0.995218	0.097503	-0.005910	-0.097548	-0.995201	0.007761	-0.005125	0.008300	0.999952	
3715														-0.055156	0.078919	9.773514	-0.995218	0.097498	-0.005921	-0.097542	-0.995201	0.007746	-0.005137	0.008286	0.999952	
3716														-0.041755	0.094671	9.788172	-0.995217	0.097508	-0.005920	-0.097552	-0.995200	0.007762	-0.005135	0.008303	0.999952	
3717														-0.040950	0.079702	9.759252	-0.995216	0.097517	-0.005948	-0.097562	-0.995199	0.007761	-0.005163	0.008304	0.999952	
3718														-0.057172	0.066295	9.817779	-0.995218	0.097496	-0.005945	-0.097541	-0.995201	0.007762	-0.005160	0.008305	0.999952	
3719														-0.042424	0.080925	9.788523	-0.995219	0.097491	-0.005925	-0.097536	-0.995202	0.007751	-0.005141	0.008292	0.999952	
3720														-0.071460	0.065642	9.788107	-0.995218	0.097501	-0.005925	-0.097546	-0.995201	0.007767	-0.005139	0.008308	0.999952	
3721														-0.057410	0.080542	9.773488	-0.995217	0.097509	-0.005963	-0.097554	-0.995200	0.007718	-0.005181	0.008263	0.999952	
3722														-0.044089	0.096149	9.788148	-0.995216	0.097520	-0.005947	-0.097564	-0.995199	0.007736	-0.005164	0.008279	0.999952	
3723														-0.058089	0.081133	9.773479	-0.995216	0.097514	-0.005946	-0.097559	-0.995200	0.007753	-0.005161	0.008296	0.999952	
3724														-0.043771	0.067844	9.788868	-0.995215	0.097524	-0.005962	-0.097569	-0.995198	0.007783	-0.005174	0.008327	0.999952	
3725														-0.044942	0.083207	9.803136	-0.995216	0.097519	-0.005943	-0.097563	-0.995199	0.007771	-0.005156	0.008314	0.999952	
3726														-0.044903	0.097432	9.773487	-0.995216	0.097513	-0.005957	-0.097558	-0.995199	0.007786	-0.005169	0.008330	0.999952	
3727														-0.074490	0.082645	9.787703	-0.995218	0.097492	-0.005955	-0.097537	-0.995201	0.007803	-0.005166	0.008347	0.999952	
3728														-0.045459	0.069615	9.803491	-0.995218	0.097502	-0.005951	-0.097547	-0.995200	0.007789	-0.005163	0.008333	0.999952	
3729														-0.059979	0.083361	9.773449	-0.995220	0.097481	-0.005936	-0.097526	-0.995202	0.007808	-0.005146	0.008349	0.999952	
3730														-0.045977	0.084568	9.788476	-0.995217	0.097506	-0.005934	-0.097551	-0.995200	0.007809	-0.005144	0.008351	0.999952	
3731														-0.060990	0.084385	9.788078	-0.995218	0.097501	-0.005946	-0.097546	-0.995200	0.007809	-0.005157	0.008351	0.999952	
3732														-0.046399	0.084802	9.773828	-0.995220	0.097480	-0.005959	-0.097525	-0.995202	0.007809	-0.005170	0.008352	0.999952	
3733														-0.061818	0.084976	9.788067	-0.995219	0.097489	-0.005957	-0.097534	-0.995202	0.007810	-0.005167	0.008354	0.999952	
3734														-0.048289	0.100825	9.802725	-0.995221	0.097469	-0.005941	-0.097514	-0.995203	0.007829	-0.005149	0.008371	0.999952	
3735														-0.046832	0.071059	9.774188	-0.995221	0.097463	-0.005950	-0.097508	-0.995204	0.007798	-0.005161	0.008341	0.999952	
3736														-0.063268	0.100354	9.787682	-0.995222	0.097457	-0.005963	-0.097502	-0.995205	0.007798	-0.005174	0.008342	0.999952	
3737														-0.033430	0.072342	9.789217	-0.995219	0.097482	-0.005960	-0.097527	-0.995202	0.007799	-0.005171	0.008343	0.999952	
3738														-0.062919	0.086100	9.773406	-0.995220	0.097477	-0.005930	-0.097522	-0.995203	0.007834	-0.005138	0.008375	0.999952	
3739														-0.048056	0.058340	9.789183	-0.995213	0.097548	-0.005964	-0.097593	-0.995195	0.007877	-0.005167	0.008421	0.999951	
3740														-0.049125	0.087838	9.773788	-0.995210	0.097573	-0.005979	-0.097618	-0.995193	0.007891	-0.005180	0.008437	0.999951	
3741														-0.049503	0.088206	9.773783	-0.995208	0.097598	-0.005977	-0.097643	-0.995190	0.007893	-0.005178	0.008438	0.999951	
3742														-0.064863	0.073956	9.803033	-0.995206	0.097622	-0.005986	-0.097668	-0.995188	0.007862	-0.005190	0.008409	0.999951	
3743														0.009506	0.063019	9.629720	-0.995157	0.098056	-0.006894	-0.098115	-0.995135	0.008920	-0.005985	0.009553	0.999936	
3744														-0.082729	0.120834	9.889823	-0.995113	0.098404	-0.008150	-0.098480	-0.995093	0.009540	-0.007171	0.010296	0.999921	
3745														-0.116337	0.121662	9.815677	-0.995103	0.098504	-0.008219	-0.098580	-0.995084	0.009486	-0.007244	0.010250	0.999921	
3746														-0.056316	0.107324	9.759252	-0.995063	0.098908	-0.008235	-0.098984	-0.995044	0.009464	-0.007258	0.010232	0.999921	
3747														-0.085504	0.077701	9.773832	-0.995033	0.099206	-0.008235	-0.099282	-0.995014	0.009460	-0.007256	0.010231	0.999921	
3748														-0.102175	0.136161	9.786416	-0.995002	0.099521	-0.008124	-0.099596	-0.994984	0.009409	-0.007146	0.010171	0.999923	
3749														-0.039987	0.049785	9.775942	-0.994979	0.099759	-0.008063	-0.099833	-0.994960	0.009414	-0.007083	0.010171	0.999923	
3750														-0.056049	0.107842	9.759248	-0.994978	0.099768	-0.008077	-0.099843	-0.994959	0.009428	-0.007096	0.010187	0.999923	
3751														-0.057754	0.109243	9.803152	-0.994980	0.099748	-0.008070	-0.099822	-0.994961	0.009401	-0.007092	0.010159	0.999923	
3752														-0.130825	0.133703	9.858822	-0.995009	0.099517	-0.007358	-0.099579	-0.994992	0.008612	-0.006464	0.009302	0.999936	
3753														-0.011591	0.031577	9.688642	-0.995079	0.098906	-0.005918	-0.098946	-0.995069	0.006885	-0.005208	0.007437	0.999959	
3754														-0.113584	0.095116	9.801104	-0.995125	0.098445	-0.005839	-0.098484	-0.995115	0.006810	-0.005140	0.007352	0.999960	
3755														-0.113061	0.094115	9.786474	-0.995241	0.097270	-0.005797	-0.097308	-0.995232	0.006725	-0.005115	0.007258	0.999961	
3756														0.094260	0.055821	9.778609	-0.995265	0.097037	-0.005621	-0.097073	-0.995255	0.006582	-0.004955	0.007096	0.999963	
3757														-0.036947	0.050814	9.789613	-0.995256	0.097139	-0.005520	-0.097174	-0.995246	0.006516	-0.004860	0.007022	0.999964	
3758														-0.037444	0.080219	9.803532	-0.995246	0.097241	-0.005363	-0.097275	-0.995236	0.006503	-0.004705	0.006994	0.999964	
3759														-0.033932	0.064324	9.759986	-0.995212	0.097603	-0.005082	-0.097635	-0.995201	0.006455	-0.004428	0.006920	0.999966	
3760														-0.032975	0.050506	9.804271	-0.995181	0.097933	-0.004943	-0.097963	-0.995169	0.006436	-0.004288	0.006889	0.999967	
3761														-0.016641	0.064422	9.760393	-0.995149	0.098262	-0.004816	-0.098292	-0.995137	0.006386	-0.004165	0.006828	0.999968	
3762														0.070748	0.068549	9.806675	-0.995097	0.098790	-0.004718	-0.098819	-0.995085	0.006437	-0.004059	0.006872	0.999968	
3763														0.164620	-0.075913	9.783367	-0.994838	0.101366	-0.004613	-0.101395	-0.994826	0.006338	-0.003946	0.006773	0.999969	
3764														-0.207019	0.146129	9.753140	-0.994546	0.104200	-0.004492	-0.104227	-0.994534	0.006222	-0.003819	0.006657	0.999971	
3765														-0.045387	0.092873	9.802817	-0.994478	0.104847	-0.004526	-0.104874	-0.994466	0.006196	-0.003851	0.006636	0.999971	
3766														0.086588	0.066923	9.792436	-0.994377	0.105797	-0.004626	-0.105824	-0.994366	0.006188	-0.003945	0.006643	0.999970	
3767														0.011581	0.094289	9.789749	-0.994285	0.106655	-0.004686	-0.106682	-0.994274	0.006124	-0.004006	0.006589	0.999970	
3768														-0.163806	0.074089	9.785369	-0.994228	0.107195	-0.004554	-0.107221	-0.994218	0.005888	-0.003897	0.006342	0.999972	
3769														-0.105262	0.074394	9.801606	-0.994284	0.106673	-0.004501	-0.106698	-0.994275	0.005780	-0.003858	0.006227	0.999973	
3770														0.144125	0.079865	9.779052	-0.994340	0.106151	-0.004526	-0.106177	-0.994330	0.005816	-0.003883	0.006264	0.999973	
3771														-0.048123	0.105555	9.787823	-0.994445	0.105160	-0.004598	-0.105186	-0.994435	0.005900	-0.003952	0.006351	0.999972	
3772														0.037693	0.138370	9.804119	-0.994612	0.103560	-0.004609	-0.103587	-0.994603	0.005922	-0.003970	0.006368	0.999972	
3773														0.094139	0.213599	9.789268	-0.994801	0.101734	-0.004574	-0.101760	-0.994791	0.005968	-0.003943	0.006403	0.999972	
3774														0.036568	0.169109	9.788735	-0.995062	0.099149	-0.004537	-0.099175	-0.995051	0.006086	-0.003911	0.006506	0.999971	
3775														0.011479	0.037009	9.805824	-0.995363	0.096090	-0.004375	-0.096116	-0.995352	0.005965	-0.003782	0.006357	0.999973	
3776														-0.003398	0.079533	9.775069	-0.995644	0.093138	-0.004327	-0.093163	-0.995633	0.006012	-0.003748	0.006389	0.999973	
3777														0.030838	0.315943	9.799765	-0.995933	0.090002	-0.004150	-0.090026	-0.995922	0.005893	-0.003603	0.006243	0.999974	
3778														0.058478	0.374977	9.784485	-0.996268	0.086228	-0.003915	-0.086250	-0.996256	0.005880	-0.003394	0.006196	0.999975	
3779														-0.140603	0.262491	9.752249	-0.996684	0.081281	-0.003749	-0.081302	-0.996672	0.005921	-0.003255	0.006206	0.999975	
3780														0.184091	-0.043569	9.739054	-0.997040	0.076803	-0.003622	-0.076824	-0.997027	0.005982	-0.003151	0.006242	0.999976	
3781														0.050723	-0.062102	9.838397	-0.997343	0.072763	-0.003676	-0.072784	-0.997330	0.005971	-0.003232	0.006222	0.999975	
3782														0.057485	0.112127	9.731977	-0.997674	0.068067	-0.003597	-0.068087	-0.997662	0.005937	-0.003185	0.006168	0.999976	
3783														-0.036824	0.373097	9.825990	-0.998032	0.062606	-0.003670	-0.062627	-0.998019	0.005961	-0.003289	0.006179	0.999976	
3784														-0.074635	0.280336	9.753800	-0.998408	0.056289	-0.003567	-0.056309	-0.998396	0.005875	-0.003231	0.006066	0.999976	
3785														0.100282	0.061188	9.837063	-0.998685	0.051144	-0.003653	-0.051166	-0.998672	0.006016	-0.003341	0.006195	0.999975	
3786														-0.015274	-0.111782	9.720446	-0.998977	0.045081	-0.003650	-0.045103	-0.998965	0.005963	-0.003378	0.006121	0.999976	
3787														-0.023349	-0.226539	9.854722	-0.999211	0.039535	-0.003756	-0.039557	-0.999199	0.006032	-0.003515	0.006175	0.999975	
3788														0.004683	-0.033894	9.777967	-0.999401	0.034399	-0.003787	-0.034422	-0.999389	0.006041	-0.003577	0.006167	0.999975	
3789														0.030983	0.145568	9.745470	-0.999565	0.029231	-0.003869	-0.029255	-0.999553	0.006138	-0.003688	0.006248	0.999974	
3790														-0.134119	0.145471	9.813945	-0.999707	0.023894	-0.003815	-0.023917	-0.999695	0.006111	-0.003667	0.006200	0.999974	
3791														-0.151420	0.171452	9.783546	-0.999821	0.018570	-0.003711	-0.018593	-0.999809	0.006057	-0.003598	0.006124	0.999975	
3792														-0.061967	0.151789	9.786644	-0.999909	0.012924	-0.003796	-0.012946	-0.999898	0.006052	-0.003717	0.006100	0.999974	
3793														0.011046	0.027351	9.776896	-0.999969	0.006939	-0.003792	-0.006961	-0.999958	0.005968	-0.003751	0.005994	0.999975	
3794														0.114395	-0.209683	9.799773	-0.999992	0.000892	-0.003829	-0.000915	-0.999982	0.006007	-0.003823	0.006011	0.999975	
3795														0.229900	-0.075084	9.800411	-0.999979	-0.005126	-0.003858	0.005103	-0.999969	0.005924	-0.003889	0.005904	0.999975	
3796														0.019480	0.162447	9.774375	-0.999928	-0.011342	-0.003849	0.011319	-0.999918	0.005984	-0.003917	0.005940	0.999975	
3797														-0.114776	0.351501	9.810329	-0.999826	-0.018265	-0.003869	0.018242	-0.999816	0.005929	-0.003977	0.005857	0.999975	
3798														0.113119	0.028193	9.706872	-0.999657	-0.025908	-0.003946	0.025885	-0.999647	0.005945	-0.004099	0.005841	0.999975	
3799														0.004207	-0.148418	9.839087	-0.999466	-0.032434	-0.003895	0.032411	-0.999457	0.005905	-0.004084	0.005775	0.999975	
3800														-0.027456	0.051802	9.775360	-0.999203	-0.039728	-0.003908	0.039705	-0.999195	0.005736	-0.004133	0.005577	0.999976	
3801														-0.081457	0.176521	9.800515	-0.998880	-0.047157	-0.003991	0.047134	-0.998872	0.005796	-0.004260	0.005601	0.999975	
3802														-0.026026	0.275479	9.771026	-0.998534	-0.053989	-0.003880	0.053966	-0.998526	0.005750	-0.004185	0.005532	0.999976	
3803														0.196331	0.035974	9.812139	-0.998120	-0.061173	-0.003903	0.061150	-0.998112	0.005733	-0.004247	0.005483	0.999976	
3804														-0.061462	-0.002650	9.687429	-0.997614	-0.068938	-0.003809	0.068916	-0.997607	0.005636	-0.004189	0.005360	0.999977	
3805														-0.086443	0.099330	9.801952	-0.997115	-0.075801	-0.003915	0.075778	-0.997109	0.005645	-0.004332	0.005332	0.999976	
3806														-0.136098	-0.030174	9.832151	-0.996576	-0.082584	-0.003961	0.082561	-0.996570	0.005698	-0.004418	0.005352	0.999976	
3807														-0.009183	0.085362	9.731499	-0.996003	-0.089228	-0.003933	0.089205	-0.995997	0.005738	-0.004429	0.005364	0.999976	
3808														-0.180219	-0.100987	9.817373	-0.995380	-0.095932	-0.003995	0.095908	-0.995373	0.005807	-0.004534	0.005396	0.999975	
3809														-0.119466	-0.102207	9.804728	-0.994754	-0.102221	-0.004003	0.102197	-0.994747	0.005886	-0.004584	0.005446	0.999975	
3810														-0.267736	0.012820	9.797726	-0.994161	-0.107836	-0.004018	0.107811	-0.994153	0.005986	-0.004640	0.005518	0.999974	
3811														-0.122755	0.033384	9.802154	-0.993612	-0.112778	-0.004040	0.112752	-0.993605	0.006000	-0.004691	0.005506	0.999974	
3812														-0.099583	-0.053482	9.745863	-0.993061	-0.117535	-0.004002	0.117510	-0.993054	0.005919	-0.004670	0.005408	0.999974	
3813														-0.093985	-0.081514	9.805166	-0.992484	-0.122307	-0.003995	0.122282	-0.992478	0.005885	-0.004684	0.005353	0.999975	
3814														-0.090441	0.024084	9.759424	-0.991865	-0.127229	-0.004032	0.127204	-0.991859	0.005914	-0.004752	0.005353	0.999974	
3815														-0.061142	0.018475	9.819163	-0.991176	-0.132487	-0.004066	0.132462	-0.991171	0.005902	-0.004813	0.005312	0.999974	
3816														-0.105332	0.174189	9.829624	-0.990457	-0.137757	-0.004131	0.137731	-0.990452	0.005968	-0.004914	0.005342	0.999974	
3817														-0.040015	0.160013	9.773475	-0.989821	-0.142263	-0.004037	0.142239	-0.989815	0.005778	-0.004818	0.005145	0.999975	
3818														-0.046831	0.020687	9.775654	-0.989085	-0.147286	-0.004089	0.147261	-0.989080	0.005840	-0.004905	0.005174	0.999975	
3819														-0.024779	-0.109723	9.778653	-0.988341	-0.152200	-0.004098	0.152175	-0.988336	0.005825	-0.004937	0.005133	0.999975	
3820														-0.211253	-0.103085	9.816109	-0.987692	-0.156357	-0.004115	0.156333	-0.987688	0.005767	-0.004966	0.005052	0.999975	
3821														-0.193711	-0.054599	9.771883	-0.987190	-0.159501	-0.004007	0.159477	-0.987185	0.005645	-0.004856	0.004934	0.999976	
3822														-0.174020	0.028154	9.815144	-0.986679	-0.162629	-0.004005	0.162605	-0.986675	0.005647	-0.004870	0.004920	0.999976	
3823														-0.087391	-0.099957	9.761608	-0.986256	-0.165176	-0.003994	0.165153	-0.986252	0.005670	-0.004876	0.004932	0.999976	
3824														-0.078773	-0.034304	9.819465	-0.985896	-0.167313	-0.003988	0.167290	-0.985892	0.005640	-0.004876	0.004893	0.999976	
3825														-0.173710	0.027456	9.771209	-0.985570	-0.169220	-0.004013	0.169196	-0.985566	0.005745	-0.004927	0.004983	0.999975	
3826														-0.099921	0.082355	9.802190	-0.985294	-0.170824	-0.003953	0.170800	-0.985289	0.005660	-0.004862	0.004901	0.999976	
3827														-0.015254	0.108190	9.775386	-0.985033	-0.172320	-0.003954	0.172297	-0.985029	0.005666	-0.004871	0.004900	0.999976	
3828														-0.031238	0.011201	9.791074	-0.984767	-0.173833	-0.003910	0.173810	-0.984764	0.005565	-0.004818	0.004800	0.999977	
3829														-0.028182	-0.142587	9.778998	-0.984532	-0.175158	-0.003945	0.175135	-0.984529	0.005477	-0.004844	0.004702	0.999977	
3830														-0.027957	-0.096099	9.778272	-0.984309	-0.176409	-0.003947	0.176386	-0.984305	0.005556	-0.004865	0.004772	0.999977	
3831														-0.009151	0.034178	9.791515	-0.984051	-0.177839	-0.003995	0.177816	-0.984048	0.005546	-0.004917	0.004748	0.999977	
3832														0.029669	0.200587	9.760899	-0.983769	-0.179397	-0.003994	0.179374	-0.983765	0.005599	-0.004933	0.004792	0.999976	
3833														-0.001148	0.100420	9.805441	-0.983459	-0.181087	-0.004006	0.181064	-0.983455	0.005655	-0.004964	0.004836	0.999976	
3834														-0.010582	-0.010815	9.777609	-0.983145	-0.182782	-0.004021	0.182759	-0.983142	0.005619	-0.004980	0.004789	0.999976	
3835														-0.048703	0.054207	9.804547	-0.982824	-0.184500	-0.004022	0.184477	-0.982821	0.005522	-0.004971	0.004685	0.999977	
3836														-0.024893	0.076582	9.775720	-0.982482	-0.186314	-0.004034	0.186291	-0.982479	0.005519	-0.004992	0.004670	0.999977	
3837														-0.076975	0.044962	9.789069	-0.982142	-0.188098	-0.004045	0.188075	-0.982139	0.005606	-0.005027	0.004745	0.999976	
3838														-0.104956	-0.057078	9.789711	-0.981846	-0.189638	-0.004049	0.189615	-0.981843	0.005476	-0.005014	0.004609	0.999977	
3839														-0.091165	-0.006663	9.789388	-0.981567	-0.191078	-0.004006	0.191055	-0.981564	0.005450	-0.004973	0.004584	0.999977	
3840														-0.068718	0.016730	9.804475	-0.981275	-0.192569	-0.004008	0.192546	-0.981273	0.005410	-0.004975	0.004537	0.999977	
3841														-0.017898	0.049236	9.791121	-0.980983	-0.194053	-0.004024	0.194031	-0.980981	0.005402	-0.004996	0.004518	0.999977	
3842														-0.083471	0.104201	9.787940	-0.980634	-0.195810	-0.003994	0.195788	-0.980632	0.005350	-0.004964	0.004465	0.999978	
3843														0.022862	0.109931	9.791637	-0.980304	-0.197453	-0.003947	0.197431	-0.980302	0.005343	-0.004925	0.004458	0.999978	
3844														0.008403	0.105078	9.805859	-0.979968	-0.199117	-0.003936	0.199096	-0.979966	0.005214	-0.004895	0.004326	0.999979	
3845														-0.022696	0.062142	9.776102	-0.979635	-0.200750	-0.003936	0.200729	-0.979633	0.005207	-0.004901	0.004311	0.999979	
3846														-0.029694	-0.095697	9.778271	-0.979300	-0.202375	-0.003908	0.202354	-0.979299	0.005108	-0.004861	0.004211	0.999979	
3847														-0.000081	-0.006970	9.807299	-0.978940	-0.204112	-0.003968	0.204091	-0.978939	0.005106	-0.004927	0.004188	0.999979	
3848														-0.057510	0.066397	9.804151	-0.978554	-0.205953	-0.003935	0.205932	-0.978553	0.005132	-0.004907	0.004211	0.999979	
3849														-0.079425	-0.003613	9.804430	-0.978177	-0.207738	-0.003936	0.207718	-0.978176	0.005051	-0.004899	0.004124	0.999979	
3850														-0.159337	0.090874	9.770817	-0.977739	-0.209790	-0.003903	0.209770	-0.977738	0.005005	-0.004866	0.004075	0.999980	
3851														-0.056038	0.019337	9.775608	-0.977235	-0.212122	-0.003909	0.212102	-0.977235	0.005041	-0.004889	0.004097	0.999980	
3852														-0.044672	0.071274	9.789925	-0.976723	-0.214469	-0.003931	0.214449	-0.976722	0.005063	-0.004925	0.004102	0.999979	
3853														0.002787	0.151626	9.805122	-0.976181	-0.216923	-0.003926	0.216903	-0.976180	0.004978	-0.004912	0.004008	0.999980	
3854														0.034559	0.147856	9.806355	-0.975590	-0.219562	-0.003962	0.219542	-0.975590	0.004960	-0.004954	0.003969	0.999980	
3855														-0.038543	0.010521	9.761769	-0.974956	-0.222364	-0.003948	0.222344	-0.974956	0.004988	-0.004959	0.003985	0.999980	
3856														-0.002722	-0.005725	9.807299	-0.974300	-0.225220	-0.003952	0.225200	-0.974300	0.004957	-0.004967	0.003940	0.999980	
3857														-0.039428	0.089988	9.804588	-0.973616	-0.228160	-0.003956	0.228140	-0.973616	0.004912	-0.004972	0.003880	0.999980	
3858														-0.040520	0.011014	9.791040	-0.972939	-0.231028	-0.003942	0.231008	-0.972939	0.004942	-0.004977	0.003898	0.999980	
3859														0.003944	0.059172	9.777320	-0.972177	-0.234215	-0.003915	0.234195	-0.972177	0.004839	-0.004940	0.003787	0.999981	
3860														0.019444	0.018185	9.778484	-0.971338	-0.237672	-0.003956	0.237652	-0.971338	0.004866	-0.004999	0.003786	0.999980	
3861														0.047618	-0.050003	9.721882	-0.970354	-0.241656	-0.004005	0.241636	-0.970354	0.004934	-0.005078	0.003820	0.999980	
3862														-0.055023	-0.039379	9.835263	-0.969482	-0.245130	-0.003999	0.245109	-0.969483	0.004974	-0.005096	0.003842	0.999980	
3863														-0.225760	-0.045293	9.799738	-0.968656	-0.248374	-0.004053	0.248353	-0.968656	0.005076	-0.005186	0.003910	0.999979	
3864														-0.068585	-0.044142	9.805562	-0.967886	-0.251357	-0.004040	0.251336	-0.967887	0.005062	-0.005182	0.003884	0.999979	
3865														-0.089564	0.009456	9.760073	-0.967275	-0.253699	-0.004078	0.253678	-0.967276	0.005071	-0.005231	0.003870	0.999979	
3866														-0.069085	0.224975	9.787205	-0.966608	-0.256229	-0.004011	0.256208	-0.966609	0.005030	-0.005166	0.003835	0.999979	
3867														0.298128	0.186386	9.728127	-0.966079	-0.258216	-0.003974	0.258195	-0.966079	0.005074	-0.005150	0.003876	0.999979	
3868														-0.383297	-0.128033	9.809630	-0.965423	-0.260658	-0.004001	0.260637	-0.965424	0.005023	-0.005172	0.003807	0.999979	
3869														-0.021124	-0.040512	9.763327	-0.964722	-0.263242	-0.003942	0.263221	-0.964722	0.005076	-0.005139	0.003859	0.999979	
3870														-0.038930	0.000526	9.776775	-0.964073	-0.265606	-0.003952	0.265586	-0.964074	0.005053	-0.005152	0.003821	0.999979	
3871														-0.037377	0.033091	9.776407	-0.963446	-0.267872	-0.003965	0.267852	-0.963447	0.005013	-0.005163	0.003768	0.999980	
3872														-0.006130	0.031768	9.806931	-0.962857	-0.269982	-0.003944	0.269962	-0.962858	0.005029	-0.005156	0.003777	0.999980	
3873														0.018588	0.122729	9.792009	-0.962235	-0.272193	-0.003936	0.272172	-0.962235	0.005079	-0.005169	0.003816	0.999979	
3874														0.098946	0.013790	9.752543	-0.961562	-0.274560	-0.003988	0.274539	-0.961562	0.005105	-0.005236	0.003814	0.999979	
3875														0.023461	-0.001297	9.808553	-0.960852	-0.277034	-0.003955	0.277013	-0.960853	0.005035	-0.005195	0.003742	0.999980	
3876														0.037759	0.004356	9.779708	-0.960113	-0.279583	-0.003976	0.279563	-0.960114	0.005047	-0.005228	0.003734	0.999979	
3877														-0.046797	0.015298	9.761727	-0.959361	-0.282156	-0.003929	0.282135	-0.959361	0.005146	-0.005221	0.003829	0.999979	
3878														-0.027204	0.108422	9.849239	-0.958484	-0.285119	-0.003924	0.285098	-0.958484	0.005240	-0.005255	0.003904	0.999979	
3879														-0.011447	0.080991	9.732945	-0.957513	-0.288363	-0.003921	0.288342	-0.957513	0.005264	-0.005272	0.003909	0.999978	
3880														0.290752	0.156677	9.772831	-0.956521	-0.291636	-0.003907	0.291615	-0.956522	0.005225	-0.005261	0.003859	0.999979	
3881														-0.332001	0.000289	9.795077	-0.955346	-0.295464	-0.003861	0.295443	-0.955346	0.005317	-0.005260	0.003939	0.999978	
3882														-0.102657	0.027153	9.803520	-0.954047	-0.299632	-0.003886	0.299610	-0.954046	0.005436	-0.005336	0.004022	0.999978	
3883														-0.080641	0.118466	9.773903	-0.952759	-0.303702	-0.003875	0.303680	-0.952759	0.005443	-0.005345	0.004010	0.999978	
3884														-0.056116	0.097992	9.804430	-0.951505	-0.307610	-0.003806	0.307589	-0.951505	0.005259	-0.005239	0.003833	0.999979	
3885														0.074319	0.162223	9.823343	-0.950230	-0.311524	-0.003871	0.311501	-0.950230	0.005470	-0.005382	0.003992	0.999978	
3886														0.684930	0.282973	9.772271	-0.948984	-0.315301	-0.003908	0.315277	-0.948983	0.005661	-0.005493	0.004140	0.999976	
3887														-0.301788	-0.068825	9.767767	-0.947576	-0.319507	-0.003909	0.319483	-0.947575	0.005673	-0.005517	0.004126	0.999976	
3888														-0.080677	0.074923	9.818568	-0.945858	-0.324558	-0.003843	0.324535	-0.945857	0.005664	-0.005473	0.004110	0.999977	
3889														0.014799	-0.011017	9.735365	-0.943990	-0.329951	-0.003793	0.329928	-0.943989	0.005601	-0.005429	0.004036	0.999977	
3890														0.056728	-0.003041	9.839520	-0.941922	-0.335811	-0.003805	0.335789	-0.941921	0.005492	-0.005429	0.003895	0.999978	
3891														-0.062365	-0.051896	9.718157	-0.939696	-0.341989	-0.003761	0.341966	-0.939696	0.005599	-0.005449	0.003975	0.999977	
3892														-0.006915	-0.004132	9.793066	-0.937385	-0.348275	-0.003718	0.348254	-0.937385	0.005400	-0.005366	0.003767	0.999979	
3893														-0.131843	-0.021364	9.817665	-0.935156	-0.354218	-0.003731	0.354196	-0.935155	0.005433	-0.005413	0.003759	0.999978	
3894														-0.166251	0.074656	9.756632	-0.933052	-0.359721	-0.003719	0.359699	-0.933052	0.005454	-0.005432	0.003751	0.999978	
3895														-0.141476	0.206651	9.800196	-0.931113	-0.364712	-0.003692	0.364691	-0.931113	0.005388	-0.005403	0.003670	0.999979	
3896														-0.045689	0.124546	9.775547	-0.928905	-0.370301	-0.003696	0.370280	-0.928905	0.005275	-0.005387	0.003532	0.999979	
3897														0.000703	0.014412	9.734535	-0.926533	-0.376195	-0.003674	0.376175	-0.926534	0.005227	-0.005371	0.003461	0.999980	
3898														0.004878	0.002649	9.808131	-0.924097	-0.382140	-0.003675	0.382120	-0.924098	0.005245	-0.005400	0.003442	0.999979	
3899														-0.055228	0.135856	9.760497	-0.921636	-0.388037	-0.003674	0.388017	-0.921638	0.005154	-0.005387	0.003325	0.999980	
3900														-0.053098	0.123531	9.878009	-0.919094	-0.394023	-0.003644	0.394003	-0.919095	0.005062	-0.005343	0.003217	0.999981	
3901														-0.125572	0.023269	9.729452	-0.916387	-0.400277	-0.003677	0.400258	-0.916389	0.005045	-0.005389	0.003151	0.999981	
3902														-0.117664	-0.022753	9.788807	-0.913572	-0.406661	-0.003684	0.406643	-0.913574	0.004890	-0.005354	0.002969	0.999981	
3903														-0.079911	0.052122	9.818995	-0.910782	-0.412870	-0.003693	0.412852	-0.910785	0.004840	-0.005361	0.002883	0.999981	
3904														-0.027395	-0.055596	9.748688	-0.908037	-0.418874	-0.003722	0.418855	-0.908040	0.004881	-0.005425	0.002873	0.999981	
3905														0.114772	-0.033711	9.768864	-0.905202	-0.424966	-0.003690	0.424948	-0.905205	0.004715	-0.005344	0.002700	0.999982	
3906														0.339478	-0.027477	9.748515	-0.901959	-0.431806	-0.003755	0.431789	-0.901963	0.004673	-0.005405	0.002593	0.999982	
3907														0.423694	-0.021140	9.766579	-0.897803	-0.440380	-0.003847	0.440363	-0.897808	0.004548	-0.005457	0.002389	0.999982	
3908														0.287396	-0.002876	9.804993	-0.893161	-0.449720	-0.003930	0.449704	-0.893167	0.004440	-0.005507	0.002199	0.999982	
3909														0.168562	0.063126	9.873156	-0.888304	-0.459239	-0.003978	0.459222	-0.888310	0.004533	-0.005616	0.002200	0.999982	
3910														-0.035654	-0.174704	9.748938	-0.883255	-0.468875	-0.004068	0.468859	-0.883262	0.004298	-0.005608	0.001889	0.999982	
3911														-0.067233	-0.253632	9.733345	-0.878323	-0.478050	-0.004074	0.478032	-0.878330	0.004566	-0.005761	0.002063	0.999981	
3912														-0.094754	-0.071188	9.819257	-0.872885	-0.487909	-0.004060	0.487893	-0.872892	0.004475	-0.005728	0.001925	0.999982	
3913														0.001531	-0.095601	9.720631	-0.867365	-0.497656	-0.004017	0.497640	-0.867373	0.004393	-0.005670	0.001811	0.999982	
3914														-0.262801	0.072418	9.811727	-0.861645	-0.507495	-0.004045	0.507479	-0.861653	0.004422	-0.005729	0.001757	0.999982	
3915														-0.032488	0.158699	9.747638	-0.855625	-0.517580	-0.004040	0.517564	-0.855633	0.004374	-0.005720	0.001652	0.999982	
3916														-0.053664	-0.006952	9.820621	-0.849773	-0.527133	-0.004088	0.527118	-0.849782	0.004250	-0.005714	0.001456	0.999983	
3917														-0.061198	0.002750	9.776299	-0.843846	-0.536571	-0.004104	0.536556	-0.843854	0.004149	-0.005689	0.001299	0.999983	
3918														-0.119556	0.027077	9.715216	-0.837965	-0.545708	-0.004161	0.545694	-0.837974	0.004162	-0.005758	0.001218	0.999983	
3919														-0.022058	-0.157404	9.822127	-0.832003	-0.554755	-0.004124	0.554742	-0.832013	0.004045	-0.005675	0.001078	0.999983	
3920														-0.252182	-0.073347	9.783134	-0.825985	-0.563677	-0.004129	0.563665	-0.825995	0.003827	-0.005568	0.000833	0.999984	
3921														-0.300280	0.039273	9.854377	-0.820216	-0.572039	-0.004054	0.572027	-0.820226	0.003718	-0.005452	0.000730	0.999985	
3922														-0.102170	0.133770	9.657298	-0.814748	-0.579801	-0.004019	0.579789	-0.814758	0.003731	-0.005437	0.000710	0.999985	
3923														-0.171192	0.238754	9.845142	-0.809762	-0.586745	-0.003999	0.586733	-0.809771	0.003839	-0.005491	0.000762	0.999985	
3924														-0.081362	0.278509	9.614394	-0.804427	-0.594037	-0.004069	0.594025	-0.804437	0.003949	-0.005619	0.000759	0.999984	
3925														-0.168646	0.122055	9.874644	-0.798724	-0.601683	-0.004099	0.601672	-0.798735	0.003713	-0.005508	0.000499	0.999985	
3926														-0.050660	0.172377	9.747702	-0.793105	-0.609071	-0.004098	0.609059	-0.793116	0.003795	-0.005562	0.000514	0.999984	
3927														-0.056525	0.068751	9.864633	-0.787468	-0.616342	-0.004113	0.616331	-0.787478	0.003817	-0.005592	0.000471	0.999984	
3928														-0.100438	-0.149788	9.759745	-0.781600	-0.623766	-0.004115	0.623754	-0.781611	0.003826	-0.005603	0.000424	0.999984	
3929														-0.057786	-0.148413	9.746835	-0.775582	-0.631233	-0.004090	0.631221	-0.775593	0.003988	-0.005690	0.000511	0.999984	
3930														-0.036418	-0.034088	9.894620	-0.769729	-0.638358	-0.004132	0.638346	-0.769740	0.003814	-0.005615	0.000298	0.999984	
3931														-0.033613	0.111006	9.660623	-0.763822	-0.645414	-0.004093	0.645403	-0.763833	0.003870	-0.005624	0.000314	0.999984	
3932														-0.004257	0.153606	9.867296	-0.757620	-0.652683	-0.004133	0.652672	-0.757631	0.003702	-0.005548	0.000107	0.999985	
3933														0.026336	0.051356	9.765581	-0.751205	-0.660056	-0.004168	0.660046	-0.751216	0.003665	-0.005550	0.000002	0.999985	
3934														-0.077318	-0.071101	9.716791	-0.744911	-0.667151	-0.004241	0.667141	-0.744923	0.003618	-0.005573	-0.000134	0.999984	
3935														-0.049778	0.013395	9.879615	-0.738683	-0.674040	-0.004241	0.674030	-0.738695	0.003609	-0.005565	-0.000193	0.999984	
3936														-0.071990	0.043264	9.585644	-0.732540	-0.680712	-0.004150	0.680702	-0.732551	0.003695	-0.005555	-0.000118	0.999985	
3937														-0.285022	-0.062623	9.942806	-0.726649	-0.686997	-0.004146	0.686986	-0.726660	0.003767	-0.005601	-0.000111	0.999984	
3938														-0.220911	-0.162428	9.695602	-0.720440	-0.693504	-0.004192	0.693496	-0.720452	0.003479	-0.005433	-0.000401	0.999985	
3939														0.008070	-0.105687	9.822634	-0.713909	-0.700226	-0.004263	0.700217	-0.713921	0.003560	-0.005536	-0.000443	0.999985	
3940														-0.333480	-0.046086	9.779638	-0.707150	-0.707051	-0.004306	0.707041	-0.707163	0.003767	-0.005709	-0.000381	0.999984	
3941														0.455361	0.327278	9.873617	-0.699286	-0.714829	-0.004415	0.714819	-0.699299	0.003754	-0.005771	-0.000530	0.999983	
3942														0.097674	-0.006366	9.797827	-0.692200	-0.721692	-0.004485	0.721683	-0.692214	0.003785	-0.005836	-0.000617	0.999983	
3943														-0.083332	-0.088546	9.672397	-0.684548	-0.728953	-0.004585	0.728944	-0.684563	0.003631	-0.005786	-0.000856	0.999983	
3944														-0.363155	-0.151147	9.836204	-0.676110	-0.736786	-0.004673	0.736777	-0.676126	0.003593	-0.005807	-0.001014	0.999983	
3945														0.134326	-0.051192	9.857622	-0.668187	-0.743978	-0.004738	0.743971	-0.668203	0.003546	-0.005804	-0.001156	0.999982	
3946														0.128359	-0.040858	9.710847	-0.660237	-0.751042	-0.004817	0.751035	-0.660253	0.003471	-0.005787	-0.001326	0.999982	
3947														0.330257	-0.082294	9.660077	-0.652057	-0.758154	-0.004934	0.758148	-0.652074	0.003382	-0.005782	-0.001535	0.999982	
3948														0.120229	-0.149603	9.727660	-0.644521	-0.764506	-0.004985	0.764501	-0.644539	0.003322	-0.005752	-0.001670	0.999982	
3949														-0.089799	-0.216911	9.795243	-0.636986	-0.770859	-0.005035	0.770854	-0.637004	0.003262	-0.005722	-0.001804	0.999982	
3950														0.172899	-0.049083	9.741844	-0.630119	-0.776482	-0.005082	0.776478	-0.630137	0.003187	-0.005677	-0.001938	0.999982	
3951														-0.033883	-0.217930	9.833983	-0.623363	-0.781916	-0.005122	0.781912	-0.623381	0.003138	-0.005647	-0.002049	0.999982	
3952														-0.228285	-0.087748	9.856943	-0.616916	-0.787012	-0.005171	0.787009	-0.616934	0.003116	-0.005642	-0.002147	0.999982	
3953														-0.240437	0.292942	9.744026	-0.610070	-0.792330	-0.005216	0.792328	-0.610088	0.003020	-0.005575	-0.002290	0.999982	
3954														-0.310596	0.173779	9.827745	-0.602545	-0.798068	-0.005251	0.798067	-0.602563	0.002824	-0.005418	-0.002489	0.999982	
3955														-0.456011	-0.098963	9.730304	-0.594886	-0.803792	-0.005378	0.803792	-0.594904	0.002651	-0.005330	-0.002746	0.999982	
3956														-0.475755	0.019145	9.848517	-0.587223	-0.809407	-0.005395	0.809408	-0.587241	0.002630	-0.005297	-0.002823	0.999982	
3957														-0.356850	0.181719	9.899718	-0.579333	-0.815073	-0.005437	0.815074	-0.579351	0.002591	-0.005262	-0.002930	0.999982	
3958														-0.188928	-0.084523	9.711918	-0.571747	-0.820411	-0.005627	0.820415	-0.571764	0.002142	-0.004975	-0.003392	0.999982	
3959														-0.126277	-0.132579	9.654985	-0.564979	-0.825086	-0.005595	0.825090	-0.564996	0.002221	-0.004994	-0.003362	0.999982	
3960														-0.309319	0.099258	9.783415	-0.558882	-0.829228	-0.005657	0.829232	-0.558900	0.002172	-0.004963	-0.003477	0.999982	
3961														-0.333264	0.418488	9.743757	-0.552334	-0.833604	-0.005637	0.833608	-0.552352	0.002266	-0.005002	-0.003447	0.999982	
3962														0.064178	0.031210	9.767787	-0.545440	-0.838130	-0.005698	0.838136	-0.545458	0.002104	-0.004871	-0.003628	0.999982	
3963														0.363723	-0.257264	9.877230	-0.539752	-0.841804	-0.005827	0.841810	-0.539770	0.001956	-0.004792	-0.003850	0.999981	
3964														0.000212	-0.114996	9.689467	-0.533606	-0.845713	-0.005814	0.845719	-0.533624	0.002006	-0.004799	-0.003847	0.999981	
3965														0.064570	-0.035243	9.810657	-0.527652	-0.849440	-0.005856	0.849447	-0.527670	0.001942	-0.004739	-0.003950	0.999981	
3966														0.258140	-0.136489	9.845719	-0.522216	-0.852793	-0.005844	0.852799	-0.522234	0.002107	-0.004849	-0.003883	0.999981	
3967														0.046903	-0.072138	9.780007	-0.517530	-0.855646	-0.005690	0.855651	-0.517548	0.002218	-0.004843	-0.003721	0.999981	
3968														0.046140	-0.293980	9.805313	-0.513636	-0.857990	-0.005678	0.857994	-0.513654	0.002323	-0.004910	-0.003678	0.999981	
3969														-0.388175	0.211177	9.650952	-0.508349	-0.861132	-0.005752	0.861137	-0.508367	0.002271	-0.004880	-0.003799	0.999981	
3970														-0.477460	0.552511	9.873872	-0.502518	-0.864546	-0.005957	0.864553	-0.502537	0.002297	-0.004980	-0.003996	0.999980	
3971														-0.103658	0.541465	9.785799	-0.496002	-0.868301	-0.005990	0.868307	-0.496021	0.002361	-0.005021	-0.004030	0.999979	
3972														0.485260	-0.306978	9.807317	-0.490175	-0.871604	-0.005924	0.871609	-0.490195	0.002527	-0.005106	-0.003924	0.999979	
3973														0.882599	-0.864317	9.782669	-0.485506	-0.874213	-0.005995	0.874219	-0.485526	0.002491	-0.005089	-0.004032	0.999979	
3974														1.246054	-0.379759	9.659321	-0.480148	-0.877167	-0.005957	0.877173	-0.480168	0.002537	-0.005086	-0.004007	0.999979	
3975														0.211184	-0.366418	9.839351	-0.473782	-0.880622	-0.005985	0.880627	-0.473803	0.002644	-0.005164	-0.004018	0.999979	
3976														-0.276644	-0.387352	9.775998	-0.467752	-0.883839	-0.006067	0.883845	-0.467773	0.002546	-0.005089	-0.004172	0.999978	
3977														-0.041923	-0.084374	9.805766	-0.462074	-0.886821	-0.006093	0.886827	-0.462095	0.002633	-0.005150	-0.004187	0.999978	
3978														-0.424443	-0.118751	9.717024	-0.456523	-0.889690	-0.006155	0.889696	-0.456545	0.002683	-0.005197	-0.004251	0.999977	
3979														-0.694760	0.231255	9.831124	-0.451361	-0.892320	-0.006105	0.892326	-0.451383	0.002784	-0.005241	-0.004191	0.999977	
3980														-0.238983	0.201330	9.730819	-0.446474	-0.894776	-0.006087	0.894781	-0.446496	0.002861	-0.005278	-0.004170	0.999977	
3981														0.229438	0.227809	9.808087	-0.441732	-0.897126	-0.006103	0.897132	-0.441753	0.002778	-0.005188	-0.004248	0.999978	
3982														0.361100	-0.121573	9.791135	-0.436053	-0.899900	-0.006144	0.899906	-0.436075	0.002803	-0.005202	-0.004306	0.999977	
3983														0.233512	-0.324732	9.811222	-0.430004	-0.902807	-0.006063	0.902812	-0.430026	0.002894	-0.005220	-0.004229	0.999977	
3984														0.077179	-0.135871	9.823918	-0.424012	-0.905636	-0.006078	0.905641	-0.424035	0.003000	-0.005294	-0.004232	0.999977	
3985														-0.022099	-0.223736	9.700910	-0.418249	-0.908311	-0.006149	0.908317	-0.418272	0.002939	-0.005242	-0.004356	0.999977	
3986														-0.046856	-0.356858	9.770302	-0.412757	-0.910820	-0.006268	0.910827	-0.412779	0.002862	-0.005194	-0.004528	0.999976	
3987														0.034378	-0.134934	9.748958	-0.407144	-0.913343	-0.006160	0.913349	-0.407167	0.003099	-0.005339	-0.004365	0.999976	
3988														-0.046822	0.295313	9.887460	-0.401313	-0.915920	-0.006254	0.915926	-0.401337	0.003034	-0.005289	-0.004511	0.999976	
3989														-0.029725	0.461727	9.759953	-0.395701	-0.918359	-0.006103	0.918364	-0.395724	0.003159	-0.005316	-0.004355	0.999976	
3990														0.000163	-0.043601	9.661721	-0.390245	-0.920691	-0.006086	0.920695	-0.390269	0.003231	-0.005350	-0.004342	0.999976	
3991														0.070207	-0.325350	9.863248	-0.384781	-0.922988	-0.006033	0.922992	-0.384805	0.003336	-0.005401	-0.004285	0.999976	
3992														-0.089881	-0.371567	9.797450	-0.379302	-0.925253	-0.006028	0.925257	-0.379325	0.003328	-0.005365	-0.004315	0.999976	
3993														-0.110057	-0.154358	9.801660	-0.373979	-0.927418	-0.005932	0.927421	-0.374002	0.003509	-0.005473	-0.004189	0.999976	
3994														-0.248144	-0.117236	9.694676	-0.369042	-0.929394	-0.005988	0.929397	-0.369065	0.003397	-0.005367	-0.004312	0.999976	
3995														-0.213480	-0.206463	9.840534	-0.364758	-0.931084	-0.005943	0.931087	-0.364781	0.003526	-0.005451	-0.004247	0.999976	
3996														0.000813	-0.134899	9.791603	-0.360892	-0.932588	-0.005975	0.932592	-0.360916	0.003494	-0.005415	-0.004311	0.999976	
3997														0.111155	-0.053782	9.753659	-0.357232	-0.933996	-0.006021	0.934000	-0.357256	0.003500	-0.005420	-0.004373	0.999976	
3998														0.065858	0.017576	9.753675	-0.353510	-0.935412	-0.005929	0.935414	-0.353534	0.003710	-0.005567	-0.004235	0.999976	
3999														-0.074665	-0.117365	9.847867	-0.350189	-0.936661	-0.005746	0.936662	-0.350214	0.003925	-0.005689	-0.004007	0.999976	
4000														0.076731	-0.188448	9.705329	-0.347368	-0.937713	-0.005562	0.937710	-0.347392	0.004322	-0.005985	-0.003714	0.999975	
4001														0.387757	-0.028204	9.779756	-0.346279	-0.938118	-0.005087	0.938108	-0.346304	0.005244	-0.006681	-0.002956	0.999973	
4002														-0.275383	-0.152370	9.810193	-0.345640	-0.938354	-0.004936	0.938342	-0.345664	0.005476	-0.006845	-0.002739	0.999973	
4003														-0.481117	-0.137558	9.787898	-0.344735	-0.938686	-0.005034	0.938677	-0.344760	0.005171	-0.006589	-0.002942	0.999974	
4004														-0.316981	-0.292345	9.761438	-0.344589	-0.938740	-0.005042	0.938731	-0.344613	0.005111	-0.006535	-0.002972	0.999974	
4005														0.055564	-0.371106	9.759387	-0.344794	-0.938665	-0.004998	0.938655	-0.344818	0.005171	-0.006577	-0.002908	0.999974	
4006														0.001376	-0.059528	9.764307	-0.344906	-0.938624	-0.004984	0.938614	-0.344930	0.005179	-0.006581	-0.002891	0.999974	
4007														-0.052233	-0.093616	9.790806	-0.345048	-0.938572	-0.004991	0.938562	-0.345072	0.005182	-0.006586	-0.002896	0.999974	
4008														-0.020428	-0.084788	9.777583	-0.345105	-0.938551	-0.004989	0.938541	-0.345129	0.005199	-0.006602	-0.002888	0.999974	
4009														-0.054872	-0.032200	9.777436	-0.345161	-0.938530	-0.004985	0.938520	-0.345185	0.005251	-0.006649	-0.002866	0.999974	
4010														0.024853	-0.087184	9.632745	-0.345265	-0.938494	-0.004611	0.938478	-0.345288	0.005863	-0.007094	-0.002303	0.999972	
4011														-0.148711	0.021539	9.921587	-0.345244	-0.938504	-0.004123	0.938481	-0.345265	0.006694	-0.007706	-0.001559	0.999969	
4012														-0.062834	-0.003835	9.763187	-0.345337	-0.938470	-0.004130	0.938447	-0.345358	0.006698	-0.007712	-0.001563	0.999969	
4013														-0.029061	0.018715	9.779677	-0.345541	-0.938395	-0.004118	0.938372	-0.345562	0.006705	-0.007715	-0.001547	0.999969	
4014														0.053313	0.122105	9.755807	-0.346297	-0.938116	-0.004104	0.938093	-0.346318	0.006749	-0.007753	-0.001513	0.999969	
4015														0.061496	0.029451	9.798210	-0.347531	-0.937659	-0.004103	0.937637	-0.347552	0.006717	-0.007724	-0.001513	0.999969	
4016														-0.020422	0.063183	9.766295	-0.348929	-0.937140	-0.004113	0.937117	-0.348950	0.006758	-0.007768	-0.001496	0.999969	
4017														-0.193451	-0.109660	9.770448	-0.350065	-0.936716	-0.004225	0.936694	-0.350087	0.006653	-0.007711	-0.001628	0.999969	
4018														-0.079146	0.074213	9.793520	-0.351074	-0.936338	-0.004278	0.936316	-0.351096	0.006677	-0.007754	-0.001661	0.999969	
4019														-0.004168	-0.071438	9.764404	-0.351807	-0.936052	-0.006231	0.936039	-0.351843	0.006095	-0.007897	-0.003688	0.999962	
4020														-0.147716	-0.110477	9.787211	-0.352577	-0.935762	-0.006240	0.935749	-0.352613	0.006099	-0.007907	-0.003689	0.999962	
4021														-0.091787	-0.123081	9.803878	-0.352871	-0.935651	-0.006240	0.935638	-0.352908	0.006146	-0.007952	-0.003670	0.999962	
4022														-0.064868	-0.068486	9.791552	-0.353055	-0.935582	-0.006269	0.935569	-0.353091	0.006142	-0.007960	-0.003697	0.999961	
4023														-0.145003	-0.156005	9.800993	-0.353130	-0.935553	-0.006257	0.935541	-0.353166	0.006117	-0.007933	-0.003693	0.999962	
4024														-0.055791	-0.024975	9.792900	-0.353040	-0.935587	-0.006226	0.935575	-0.353076	0.006122	-0.007926	-0.003664	0.999962	
4025														-0.089618	-0.045929	9.761716	-0.352567	-0.935766	-0.006171	0.935753	-0.352602	0.006105	-0.007889	-0.003622	0.999962	
4026														-0.156359	-0.001952	9.789311	-0.351393	-0.936207	-0.006226	0.936194	-0.351429	0.006137	-0.007933	-0.003672	0.999962	
4027														-0.019948	-0.062221	9.778906	-0.349519	-0.936908	-0.006344	0.936895	-0.349556	0.006174	-0.008002	-0.003786	0.999961	
4028														-0.041090	-0.087822	9.777491	-0.348658	-0.937229	-0.006322	0.937216	-0.348695	0.006188	-0.008004	-0.003768	0.999961	
4029														-0.114123	-0.072495	9.804181	-0.348053	-0.937454	-0.006305	0.937441	-0.348089	0.006197	-0.008004	-0.003753	0.999961	
4030														-0.081964	-0.063347	9.791031	-0.346916	-0.937876	-0.006218	0.937862	-0.346952	0.006198	-0.007970	-0.003681	0.999961	
4031														-0.028859	-0.028278	9.764658	-0.346144	-0.938161	-0.006211	0.938148	-0.346180	0.006218	-0.007983	-0.003674	0.999961	
4032														-0.069984	-0.079117	9.761840	-0.345445	-0.938419	-0.006207	0.938405	-0.345481	0.006202	-0.007964	-0.003682	0.999962	
4033														-0.079711	-0.047899	9.791477	-0.344800	-0.938655	-0.006223	0.938642	-0.344836	0.006214	-0.007979	-0.003698	0.999961	
4034														0.021489	0.005913	9.782181	-0.344524	-0.938757	-0.006245	0.938744	-0.344560	0.006219	-0.007990	-0.003719	0.999961	
4035														-0.048309	-0.038939	9.778324	-0.344525	-0.938756	-0.006229	0.938743	-0.344562	0.006230	-0.007994	-0.003701	0.999961	
4036														-0.065938	-0.049872	9.777359	-0.344526	-0.938756	-0.006229	0.938743	-0.344563	0.006214	-0.007980	-0.003707	0.999961	
4037														-0.048936	-0.038278	9.778323	-0.344528	-0.938756	-0.006227	0.938742	-0.344564	0.006232	-0.007996	-0.003698	0.999961	
4038														-0.066230	-0.048912	9.762724	-0.344528	-0.938755	-0.006237	0.938742	-0.344565	0.006259	-0.008024	-0.003699	0.999961	
4039														-0.053715	-0.052212	9.792509	-0.344493	-0.938768	-0.006226	0.938755	-0.344529	0.006291	-0.008051	-0.003678	0.999961	
4040														-0.068462	-0.048647	9.791986	-0.344513	-0.938761	-0.006198	0.938747	-0.344549	0.006293	-0.008043	-0.003650	0.999961	
4041														-0.068095	-0.048028	9.777354	-0.344513	-0.938761	-0.006219	0.938747	-0.344550	0.006272	-0.008030	-0.003677	0.999961	
4042														-0.054070	-0.050814	9.777877	-0.344496	-0.938767	-0.006203	0.938753	-0.344533	0.006283	-0.008035	-0.003659	0.999961	
4043														-0.068164	-0.046987	9.762720	-0.344516	-0.938760	-0.006188	0.938746	-0.344552	0.006293	-0.008039	-0.003641	0.999961	
4044														-0.051760	-0.035607	9.778319	-0.344517	-0.938760	-0.006180	0.938746	-0.344554	0.006290	-0.008034	-0.003634	0.999961	
4045														-0.054457	-0.049257	9.763245	-0.344500	-0.938766	-0.006172	0.938752	-0.344536	0.006288	-0.008029	-0.003628	0.999961	
4046														-0.055185	-0.049189	9.777879	-0.344502	-0.938766	-0.006146	0.938752	-0.344538	0.006256	-0.007991	-0.003614	0.999962	
4047														-0.053106	-0.034771	9.792951	-0.344503	-0.938765	-0.006149	0.938751	-0.344539	0.006295	-0.008028	-0.003603	0.999961	
4048														-0.056512	-0.048735	9.792511	-0.344523	-0.938758	-0.006136	0.938744	-0.344558	0.006271	-0.008001	-0.003599	0.999962	
4049														-0.070966	-0.045420	9.791984	-0.344505	-0.938764	-0.006136	0.938750	-0.344541	0.006256	-0.007987	-0.003605	0.999962	
4050														-0.041906	-0.050923	9.778408	-0.344524	-0.938757	-0.006136	0.938743	-0.344560	0.006240	-0.007972	-0.003610	0.999962	
4051														-0.060298	-0.062223	9.792072	-0.344507	-0.938764	-0.006139	0.938750	-0.344543	0.006279	-0.008010	-0.003599	0.999961	
4052														-0.085803	-0.041034	9.776818	-0.344490	-0.938770	-0.006110	0.938756	-0.344526	0.006282	-0.008002	-0.003571	0.999962	
4053														-0.068684	-0.029229	9.777786	-0.344492	-0.938770	-0.006089	0.938755	-0.344527	0.006271	-0.007985	-0.003555	0.999962	
4054														-0.058879	-0.046868	9.807144	-0.344493	-0.938769	-0.006094	0.938755	-0.344528	0.006276	-0.007992	-0.003559	0.999962	
4055														-0.058002	-0.045924	9.777879	-0.344475	-0.938776	-0.006086	0.938761	-0.344511	0.006274	-0.007986	-0.003552	0.999962	
4056														-0.073126	-0.042976	9.791979	-0.344476	-0.938775	-0.006094	0.938761	-0.344511	0.006245	-0.007962	-0.003570	0.999962	
4057														-0.054798	-0.030640	9.763682	-0.344478	-0.938775	-0.006057	0.938761	-0.344513	0.006260	-0.007964	-0.003530	0.999962	
4058														-0.058693	-0.044829	9.777880	-0.344497	-0.938768	-0.006058	0.938754	-0.344532	0.006244	-0.007949	-0.003536	0.999962	
4059														-0.063279	-0.059586	9.806708	-0.344461	-0.938781	-0.006076	0.938767	-0.344496	0.006258	-0.007968	-0.003548	0.999962	
4060														-0.055827	-0.029719	9.763679	-0.344462	-0.938781	-0.006068	0.938767	-0.344497	0.006255	-0.007962	-0.003542	0.999962	
4061														-0.047805	-0.061048	9.763345	-0.344463	-0.938780	-0.006060	0.938766	-0.344498	0.006252	-0.007957	-0.003536	0.999962	
4062														-0.046307	-0.046992	9.793044	-0.344446	-0.938787	-0.006052	0.938773	-0.344481	0.006249	-0.007952	-0.003529	0.999962	
4063														-0.061529	-0.043930	9.807141	-0.344465	-0.938780	-0.006045	0.938765	-0.344500	0.006246	-0.007946	-0.003523	0.999962	
4064														-0.077302	-0.053946	9.762275	-0.344466	-0.938779	-0.006037	0.938765	-0.344501	0.006243	-0.007941	-0.003517	0.999962	
4065														-0.063925	-0.056866	9.777444	-0.344412	-0.938799	-0.006021	0.938785	-0.344447	0.006254	-0.007945	-0.003498	0.999962	
4066														-0.058422	-0.027931	9.778306	-0.344412	-0.938799	-0.006052	0.938785	-0.344448	0.006275	-0.007976	-0.003521	0.999962	
4067														-0.046993	-0.044696	9.763779	-0.344395	-0.938805	-0.006036	0.938791	-0.344430	0.006285	-0.007980	-0.003502	0.999962	
4068														-0.051560	-0.059235	9.792612	-0.344378	-0.938812	-0.006028	0.938797	-0.344413	0.006283	-0.007975	-0.003496	0.999962	
4069														-0.061982	-0.040850	9.763239	-0.344342	-0.938825	-0.006012	0.938810	-0.344377	0.006294	-0.007979	-0.003477	0.999962	
4070														-0.079582	-0.051705	9.762269	-0.344344	-0.938824	-0.005992	0.938810	-0.344379	0.006283	-0.007962	-0.003462	0.999962	
4071														-0.066672	-0.054997	9.792074	-0.344326	-0.938831	-0.005991	0.938816	-0.344361	0.006267	-0.007947	-0.003467	0.999962	
4072														-0.063794	-0.040274	9.792505	-0.344328	-0.938830	-0.005957	0.938816	-0.344363	0.006248	-0.007918	-0.003441	0.999963	
4073														-0.063393	-0.039459	9.777873	-0.344311	-0.938837	-0.005942	0.938822	-0.344345	0.006259	-0.007922	-0.003423	0.999963	
4074														-0.066770	-0.053322	9.777445	-0.344331	-0.938830	-0.005927	0.938815	-0.344365	0.006269	-0.007926	-0.003405	0.999963	
4075														-0.064827	-0.038875	9.792504	-0.344313	-0.938836	-0.005924	0.938821	-0.344347	0.006287	-0.007942	-0.003397	0.999963	
4076														-0.066976	-0.052229	9.762811	-0.344314	-0.938836	-0.005916	0.938821	-0.344348	0.006284	-0.007937	-0.003391	0.999963	
4077														-0.067984	-0.052173	9.777443	-0.344334	-0.938829	-0.005914	0.938814	-0.344368	0.006301	-0.007952	-0.003383	0.999963	
4078														-0.053438	-0.054619	9.763354	-0.344316	-0.938835	-0.005927	0.938820	-0.344350	0.006293	-0.007949	-0.003398	0.999963	
4079														-0.062794	-0.022987	9.778292	-0.344298	-0.938842	-0.005924	0.938827	-0.344332	0.006311	-0.007965	-0.003389	0.999963	
4080														-0.069797	-0.051592	9.792071	-0.344299	-0.938841	-0.005917	0.938826	-0.344333	0.006308	-0.007960	-0.003383	0.999963	
4081														-0.040866	-0.056996	9.778532	-0.344263	-0.938855	-0.005922	0.938840	-0.344297	0.006314	-0.007967	-0.003386	0.999963	
4082														-0.069814	-0.050727	9.777437	-0.344245	-0.938861	-0.005921	0.938846	-0.344279	0.006298	-0.007951	-0.003391	0.999963	
4083														-0.070041	-0.050327	9.777438	-0.344265	-0.938854	-0.005893	0.938839	-0.344299	0.006300	-0.007943	-0.003364	0.999963	
4084														-0.067322	-0.035537	9.777862	-0.344266	-0.938854	-0.005886	0.938838	-0.344300	0.006297	-0.007938	-0.003358	0.999963	
4085														-0.053281	-0.038189	9.778411	-0.344249	-0.938860	-0.005878	0.938845	-0.344283	0.006294	-0.007933	-0.003352	0.999963	
4086														-0.056662	-0.052155	9.777987	-0.344231	-0.938866	-0.005875	0.938851	-0.344265	0.006312	-0.007949	-0.003343	0.999963	
4087														-0.067786	-0.034358	9.763226	-0.344213	-0.938873	-0.005909	0.938858	-0.344247	0.006298	-0.007948	-0.003380	0.999963	
4088														-0.039555	-0.040315	9.764325	-0.344213	-0.938873	-0.005928	0.938858	-0.344247	0.006311	-0.007966	-0.003393	0.999963	
4089														-0.057839	-0.051640	9.777983	-0.344214	-0.938873	-0.005907	0.938857	-0.344248	0.006300	-0.007949	-0.003377	0.999963	
4090														-0.061643	-0.066038	9.792193	-0.344215	-0.938872	-0.005928	0.938857	-0.344249	0.006278	-0.007935	-0.003405	0.999963	
4091														-0.069664	-0.033818	9.777852	-0.344216	-0.938872	-0.005913	0.938857	-0.344250	0.006288	-0.007939	-0.003387	0.999963	
4092														-0.043701	-0.053443	9.763904	-0.344198	-0.938878	-0.005905	0.938863	-0.344232	0.006285	-0.007933	-0.003380	0.999963	
4093														-0.071290	-0.046605	9.733533	-0.344199	-0.938878	-0.005913	0.938863	-0.344233	0.006256	-0.007909	-0.003398	0.999963	
4094														-0.061037	-0.051256	9.821877	-0.344199	-0.938878	-0.005931	0.938863	-0.344233	0.006268	-0.007927	-0.003411	0.999963	
4095														-0.075709	-0.047950	9.821322	-0.344201	-0.938878	-0.005911	0.938863	-0.344235	0.006257	-0.007909	-0.003396	0.999963	
4096														-0.057729	-0.048769	9.734087	-0.344183	-0.938884	-0.005897	0.938869	-0.344217	0.006233	-0.007882	-0.003391	0.999963	
4097														-0.043183	-0.038432	9.793589	-0.344202	-0.938877	-0.005925	0.938863	-0.344236	0.006232	-0.007891	-0.003417	0.999963	
4098														-0.057901	-0.035071	9.793033	-0.344204	-0.938877	-0.005888	0.938862	-0.344237	0.006247	-0.007892	-0.003378	0.999963	
4099														-0.105979	-0.053792	9.761259	-0.344167	-0.938890	-0.005914	0.938875	-0.344201	0.006247	-0.007900	-0.003402	0.999963	
4100														-0.046891	-0.051617	9.778535	-0.344167	-0.938890	-0.005938	0.938875	-0.344201	0.006280	-0.007940	-0.003413	0.999963	
4101														-0.044473	-0.037060	9.778953	-0.344186	-0.938883	-0.005944	0.938868	-0.344220	0.006284	-0.007946	-0.003417	0.999963	
4102														-0.063399	-0.048792	9.807237	-0.344186	-0.938883	-0.005957	0.938868	-0.344221	0.006275	-0.007942	-0.003433	0.999963	
4103														-0.051434	-0.029857	9.588177	-0.344204	-0.938876	-0.005982	0.938861	-0.344239	0.006308	-0.007982	-0.003445	0.999962	
4104														-0.038888	-0.056003	9.866876	-0.344201	-0.938876	-0.006105	0.938861	-0.344237	0.006383	-0.008095	-0.003535	0.999961	
4105														-0.139337	-0.057274	10.111818	-0.344149	-0.938896	-0.006036	0.938881	-0.344184	0.006363	-0.008051	-0.003478	0.999962	
4106														-0.079118	-0.034984	9.454941	-0.344150	-0.938895	-0.006016	0.938880	-0.344185	0.006351	-0.008034	-0.003462	0.999962	
4107														0.051661	-0.070456	9.738572	-0.344167	-0.938889	-0.006090	0.938874	-0.344202	0.006361	-0.008069	-0.003528	0.999961	
4108														-0.028747	-0.059329	9.925965	-0.344168	-0.938889	-0.006082	0.938874	-0.344203	0.006358	-0.008063	-0.003522	0.999961	
4109														-0.162279	-0.024389	9.686212	-0.344131	-0.938902	-0.006092	0.938887	-0.344167	0.006383	-0.008090	-0.003523	0.999961	
4110														-0.070263	-0.048674	9.865741	-0.344131	-0.938902	-0.006124	0.938887	-0.344167	0.006403	-0.008120	-0.003546	0.999961	
4111														0.047898	-0.070677	9.782481	-0.344132	-0.938901	-0.006120	0.938887	-0.344168	0.006366	-0.008083	-0.003555	0.999961	
4112														-0.104624	-0.021869	9.718140	-0.344132	-0.938901	-0.006107	0.938886	-0.344169	0.006431	-0.008140	-0.003521	0.999961	
4113														-0.143741	-0.046096	9.803951	-0.344132	-0.938901	-0.006155	0.938886	-0.344169	0.006424	-0.008150	-0.003568	0.999960	
4114														-0.041634	-0.052903	9.822975	-0.344114	-0.938908	-0.006165	0.938892	-0.344151	0.006449	-0.008177	-0.003569	0.999960	
4115														-0.050390	-0.033833	9.749664	-0.344132	-0.938901	-0.006176	0.938885	-0.344169	0.006475	-0.008205	-0.003570	0.999960	
4116														-0.073060	-0.060294	9.792151	-0.344132	-0.938901	-0.006210	0.938886	-0.344169	0.006462	-0.008204	-0.003606	0.999960	
4117														-0.072433	-0.046679	9.836460	-0.344133	-0.938901	-0.006207	0.938885	-0.344170	0.006479	-0.008219	-0.003598	0.999960	
4118														-0.054580	-0.047606	9.749243	-0.344133	-0.938900	-0.006207	0.938885	-0.344170	0.006462	-0.008204	-0.003604	0.999960	
4119														-0.070342	-0.045025	9.777933	-0.344134	-0.938900	-0.006216	0.938885	-0.344171	0.006433	-0.008179	-0.003622	0.999960	
4120														-0.076178	-0.060172	9.836042	-0.344098	-0.938913	-0.006193	0.938898	-0.344135	0.006456	-0.008193	-0.003593	0.999960	
4121														-0.082324	-0.026933	9.777775	-0.344080	-0.938920	-0.006192	0.938905	-0.344117	0.006440	-0.008177	-0.003598	0.999960	
4122														-0.073578	-0.058054	9.762885	-0.344081	-0.938919	-0.006198	0.938904	-0.344118	0.006443	-0.008183	-0.003602	0.999960	
4123														-0.069328	-0.029591	9.792976	-0.344064	-0.938926	-0.006182	0.938910	-0.344101	0.006453	-0.008186	-0.003584	0.999960	
4124														-0.057765	-0.046302	9.778504	-0.344064	-0.938926	-0.006201	0.938910	-0.344102	0.006464	-0.008203	-0.003598	0.999960	
4125														-0.073086	-0.043305	9.792558	-0.344066	-0.938925	-0.006180	0.938910	-0.344103	0.006453	-0.008186	-0.003582	0.999960	
4126														-0.059573	-0.046123	9.807767	-0.344048	-0.938932	-0.006160	0.938916	-0.344085	0.006443	-0.008169	-0.003567	0.999960	
4127														-0.072234	-0.041819	9.763297	-0.344012	-0.938945	-0.006143	0.938930	-0.344049	0.006454	-0.008173	-0.003548	0.999960	
4128														-0.073886	-0.042190	9.792557	-0.344012	-0.938945	-0.006179	0.938930	-0.344049	0.006439	-0.008172	-0.003586	0.999960	
4129														-0.067150	-0.043478	9.796503	-0.344005	-0.938948	-0.006152	0.938932	-0.344041	0.006453	-0.008175	-0.003557	0.999960	
4130														-0.060414	-0.044767	9.800450	-0.343997	-0.938951	-0.006126	0.938935	-0.344034	0.006466	-0.008179	-0.003527	0.999960	
4131														-0.070775	-0.025974	9.763703	-0.343997	-0.938951	-0.006123	0.938935	-0.344034	0.006481	-0.008192	-0.003520	0.999960	
4132														-0.063520	-0.057645	9.778089	-0.343997	-0.938951	-0.006141	0.938935	-0.344034	0.006494	-0.008210	-0.003532	0.999960	
4133														-0.090976	-0.037607	9.806599	-0.343979	-0.938957	-0.006124	0.938941	-0.344016	0.006503	-0.008213	-0.003513	0.999960	
4134														-0.076325	-0.039884	9.792548	-0.343980	-0.938957	-0.006119	0.938941	-0.344017	0.006500	-0.008208	-0.003509	0.999960	
4135														-0.078763	-0.053656	9.777507	-0.343963	-0.938963	-0.006113	0.938948	-0.343999	0.006463	-0.008171	-0.003517	0.999960	
4136														-0.064658	-0.056226	9.778090	-0.343964	-0.938963	-0.006090	0.938947	-0.344000	0.006485	-0.008184	-0.003487	0.999960	
4137														-0.061380	-0.041191	9.763868	-0.343946	-0.938970	-0.006089	0.938954	-0.343983	0.006469	-0.008168	-0.003492	0.999961	
4138														-0.058730	-0.026706	9.764275	-0.343965	-0.938963	-0.006117	0.938947	-0.344001	0.006468	-0.008177	-0.003519	0.999960	
4139														-0.049786	-0.044758	9.808342	-0.343965	-0.938963	-0.006136	0.938947	-0.344001	0.006480	-0.008195	-0.003532	0.999960	
4140														-0.063970	-0.041234	9.793124	-0.343947	-0.938969	-0.006133	0.938953	-0.343983	0.006498	-0.008210	-0.003523	0.999960	
4141														-0.078153	-0.037713	9.777905	-0.343947	-0.938969	-0.006151	0.938953	-0.343984	0.006510	-0.008228	-0.003536	0.999960	
4142														-0.056394	-0.072308	9.792892	-0.343948	-0.938969	-0.006131	0.938953	-0.343985	0.006498	-0.008210	-0.003522	0.999960	
4143														-0.064343	-0.040035	9.778490	-0.343967	-0.938962	-0.006132	0.938946	-0.344004	0.006481	-0.008195	-0.003528	0.999960	
4144														-0.064018	-0.039343	9.763859	-0.343932	-0.938975	-0.006108	0.938959	-0.343968	0.006504	-0.008208	-0.003498	0.999960	
4145														-0.072437	-0.068431	9.806937	-0.343950	-0.938968	-0.006119	0.938952	-0.343987	0.006529	-0.008236	-0.003500	0.999960	
4146														-0.066289	-0.039312	9.793117	-0.343913	-0.938981	-0.006140	0.938965	-0.343950	0.006508	-0.008222	-0.003527	0.999960	
4147														-0.080316	-0.035867	9.777894	-0.343951	-0.938968	-0.006138	0.938952	-0.343987	0.006524	-0.008238	-0.003520	0.999960	
4148														-0.072224	-0.067214	9.777672	-0.343952	-0.938967	-0.006139	0.938951	-0.343988	0.006507	-0.008222	-0.003526	0.999960	
4149														-0.069512	-0.052576	9.778077	-0.343953	-0.938967	-0.006131	0.938951	-0.343989	0.006503	-0.008215	-0.003520	0.999960	
4150														-0.069240	-0.051936	9.763446	-0.343953	-0.938967	-0.006129	0.938951	-0.343989	0.006521	-0.008232	-0.003512	0.999960	
4151														-0.073969	-0.066621	9.792300	-0.343953	-0.938967	-0.006156	0.938951	-0.343990	0.006520	-0.008240	-0.003538	0.999960	
4152														-0.067765	-0.037457	9.778477	-0.343954	-0.938966	-0.006149	0.938950	-0.343991	0.006515	-0.008233	-0.003533	0.999960	
4153														-0.071043	-0.051391	9.778073	-0.343974	-0.938959	-0.006135	0.938943	-0.344011	0.006524	-0.008236	-0.003516	0.999960	
4154														-0.041123	-0.042949	9.808926	-0.343976	-0.938959	-0.006099	0.938942	-0.344013	0.006538	-0.008237	-0.003478	0.999960	
4155														-0.054510	-0.038966	9.779070	-0.343958	-0.938965	-0.006104	0.938949	-0.343994	0.006543	-0.008243	-0.003480	0.999960	
4156														-0.071526	-0.049816	9.763440	-0.343977	-0.938958	-0.006110	0.938942	-0.344014	0.006546	-0.008248	-0.003485	0.999960	
4157														-0.061924	-0.067459	9.792893	-0.343995	-0.938951	-0.006130	0.938935	-0.344032	0.006558	-0.008266	-0.003500	0.999960	
4158														-0.059437	-0.052905	9.793294	-0.343996	-0.938951	-0.006136	0.938935	-0.344033	0.006561	-0.008271	-0.003504	0.999960	
4159														-0.075783	-0.063483	9.763032	-0.343978	-0.938958	-0.006142	0.938941	-0.344015	0.006566	-0.008278	-0.003508	0.999960	
4160														-0.057916	-0.038368	9.808324	-0.343959	-0.938964	-0.006155	0.938948	-0.343996	0.006557	-0.008274	-0.003523	0.999960	
4161														-0.048476	-0.069161	9.778858	-0.343979	-0.938957	-0.006139	0.938941	-0.344016	0.006566	-0.008277	-0.003506	0.999960	
4162														-0.076490	-0.049366	9.821954	-0.343962	-0.938964	-0.006140	0.938947	-0.343999	0.006549	-0.008261	-0.003513	0.999960	
4163														-0.071151	-0.033475	9.763831	-0.343963	-0.938963	-0.006103	0.938947	-0.344000	0.006563	-0.008262	-0.003473	0.999960	
4164														-0.074413	-0.047305	9.763431	-0.343964	-0.938963	-0.006096	0.938947	-0.344000	0.006560	-0.008256	-0.003468	0.999960	
4165														-0.060995	-0.050340	9.778662	-0.343964	-0.938963	-0.006118	0.938947	-0.344001	0.006537	-0.008243	-0.003496	0.999960	
4166														-0.079139	-0.061870	9.792291	-0.343983	-0.938956	-0.006118	0.938940	-0.344020	0.006520	-0.008227	-0.003502	0.999960	
4167														-0.076390	-0.047287	9.792690	-0.343966	-0.938962	-0.006117	0.938946	-0.344002	0.006503	-0.008210	-0.003507	0.999960	
4168														-0.062409	-0.050038	9.793290	-0.343966	-0.938962	-0.006135	0.938946	-0.344003	0.006514	-0.008227	-0.003520	0.999960	
4169														-0.047077	-0.052142	9.764631	-0.343931	-0.938975	-0.006113	0.938959	-0.343967	0.006502	-0.008208	-0.003504	0.999960	
4170														-0.060091	-0.034922	9.793688	-0.343950	-0.938968	-0.006099	0.938952	-0.343987	0.006510	-0.008211	-0.003488	0.999960	
4171														-0.062017	-0.048322	9.764029	-0.343952	-0.938968	-0.006094	0.938951	-0.343988	0.006505	-0.008204	-0.003484	0.999960	
4172														-0.080360	-0.059726	9.777657	-0.343953	-0.938967	-0.006110	0.938951	-0.343990	0.006516	-0.008220	-0.003496	0.999960	
4173														-0.075043	-0.049577	9.781762	-0.343954	-0.938967	-0.006109	0.938951	-0.343990	0.006518	-0.008222	-0.003494	0.999960	
4174														-0.069726	-0.039428	9.785867	-0.343954	-0.938967	-0.006108	0.938950	-0.343991	0.006520	-0.008223	-0.003493	0.999960	
4175														-0.066387	-0.061596	9.763629	-0.343935	-0.938974	-0.006108	0.938958	-0.343971	0.006501	-0.008206	-0.003499	0.999960	
4176														-0.076440	-0.030194	9.793075	-0.343973	-0.938960	-0.006101	0.938944	-0.344009	0.006496	-0.008199	-0.003494	0.999960	
4177														-0.066953	-0.060897	9.763629	-0.343994	-0.938952	-0.006086	0.938936	-0.344030	0.006504	-0.008201	-0.003478	0.999960	
4178														-0.077058	-0.029431	9.793073	-0.343938	-0.938972	-0.006086	0.938957	-0.343975	0.006489	-0.008186	-0.003483	0.999960	
4179														-0.084826	-0.071423	9.762628	-0.343940	-0.938972	-0.006042	0.938956	-0.343976	0.006517	-0.008197	-0.003432	0.999961	
4180														-0.065053	-0.045150	9.764025	-0.343941	-0.938972	-0.006048	0.938956	-0.343977	0.006520	-0.008202	-0.003436	0.999960	
4181														-0.066223	-0.045038	9.778653	-0.343940	-0.938972	-0.006039	0.938955	-0.343976	0.006552	-0.008229	-0.003417	0.999960	
4182														-0.066661	-0.044615	9.778652	-0.343922	-0.938979	-0.006032	0.938962	-0.343958	0.006548	-0.008223	-0.003411	0.999960	
4183														-0.070542	-0.058763	9.792891	-0.343906	-0.938985	-0.006002	0.938968	-0.343942	0.006549	-0.008213	-0.003384	0.999961	
4184														-0.067210	-0.043694	9.778653	-0.343906	-0.938985	-0.005995	0.938968	-0.343942	0.006545	-0.008208	-0.003378	0.999961	
4185														-0.053100	-0.046236	9.779265	-0.343907	-0.938985	-0.005974	0.938968	-0.343943	0.006534	-0.008190	-0.003363	0.999961	
4186														-0.067159	-0.042776	9.764021	-0.343906	-0.938985	-0.006006	0.938968	-0.343942	0.006554	-0.008220	-0.003385	0.999960	
4187														-0.054581	-0.045977	9.793894	-0.343907	-0.938985	-0.005986	0.938968	-0.343942	0.006543	-0.008202	-0.003371	0.999961	
4188														-0.056269	-0.059415	9.764244	-0.343889	-0.938991	-0.005974	0.938975	-0.343925	0.006518	-0.008175	-0.003369	0.999961	
4189														-0.054366	-0.045018	9.779264	-0.343890	-0.938991	-0.005985	0.938974	-0.343926	0.006541	-0.008201	-0.003370	0.999961	
4190														-0.057807	-0.059201	9.778873	-0.343891	-0.938990	-0.006011	0.938974	-0.343927	0.006539	-0.008207	-0.003395	0.999961	
4191														-0.070783	-0.042301	9.807906	-0.343929	-0.938977	-0.006008	0.938960	-0.343964	0.006500	-0.008170	-0.003406	0.999961	
4192														-0.072581	-0.055839	9.778256	-0.343912	-0.938983	-0.006005	0.938966	-0.343947	0.006516	-0.008184	-0.003398	0.999961	
4193														-0.083739	-0.037769	9.763397	-0.343914	-0.938982	-0.005971	0.938966	-0.343949	0.006530	-0.008185	-0.003360	0.999961	
4194														-0.074079	-0.055206	9.792886	-0.343931	-0.938976	-0.006000	0.938959	-0.343967	0.006528	-0.008194	-0.003388	0.999961	
4195														-0.070097	-0.040200	9.764011	-0.343896	-0.938989	-0.006000	0.938972	-0.343932	0.006511	-0.008177	-0.003394	0.999961	
4196														-0.058976	-0.057234	9.764242	-0.343896	-0.938988	-0.006006	0.938972	-0.343932	0.006515	-0.008183	-0.003399	0.999961	
4197														-0.054208	-0.028428	9.779646	-0.343897	-0.938988	-0.005991	0.938972	-0.343933	0.006524	-0.008187	-0.003381	0.999961	
4198														-0.088419	-0.050534	9.763001	-0.343897	-0.938988	-0.005975	0.938971	-0.343933	0.006535	-0.008191	-0.003363	0.999961	
4199														-0.061655	-0.056477	9.793501	-0.343879	-0.938995	-0.005978	0.938978	-0.343915	0.006573	-0.008228	-0.003353	0.999961	
4200														-0.062045	-0.056113	9.793501	-0.343898	-0.938988	-0.005965	0.938971	-0.343934	0.006548	-0.008200	-0.003349	0.999961	
4201														-0.058583	-0.041331	9.779256	-0.343899	-0.938988	-0.005985	0.938971	-0.343934	0.006526	-0.008186	-0.003376	0.999961	
4202														-0.077032	-0.052731	9.792876	-0.343879	-0.938995	-0.005982	0.938978	-0.343915	0.006578	-0.008234	-0.003355	0.999960	
4203														-0.073912	-0.037647	9.778630	-0.343881	-0.938994	-0.005962	0.938977	-0.343916	0.006566	-0.008216	-0.003340	0.999961	
4204														-0.061993	-0.054437	9.764239	-0.343862	-0.939001	-0.005983	0.938985	-0.343897	0.006544	-0.008203	-0.003368	0.999961	
4205														-0.063665	-0.054691	9.793498	-0.343863	-0.939001	-0.005967	0.938984	-0.343899	0.006553	-0.008205	-0.003350	0.999961	
4206														-0.061877	-0.040167	9.808511	-0.343845	-0.939007	-0.005966	0.938990	-0.343881	0.006569	-0.008220	-0.003343	0.999961	
4207														-0.063265	-0.053332	9.764237	-0.343846	-0.939007	-0.005957	0.938990	-0.343881	0.006599	-0.008245	-0.003325	0.999960	
4208														-0.075021	-0.035644	9.763992	-0.343865	-0.939000	-0.005946	0.938983	-0.343901	0.006574	-0.008218	-0.003322	0.999961	
4209														-0.080266	-0.050658	9.807498	-0.343828	-0.939014	-0.005993	0.938997	-0.343864	0.006567	-0.008227	-0.003369	0.999960	
4210														-0.078594	-0.049648	9.763606	-0.343830	-0.939013	-0.005956	0.938996	-0.343865	0.006582	-0.008228	-0.003330	0.999961	
4211														-0.081836	-0.063589	9.763224	-0.343830	-0.939013	-0.005971	0.938996	-0.343865	0.006573	-0.008225	-0.003347	0.999961	
4212														-0.049073	-0.041030	9.794504	-0.343793	-0.939026	-0.005975	0.939009	-0.343829	0.006576	-0.008230	-0.003350	0.999961	
4213														-0.053020	-0.055319	9.808752	-0.343795	-0.939026	-0.005969	0.939009	-0.343830	0.006571	-0.008223	-0.003345	0.999961	
4214														-0.083613	-0.062964	9.777851	-0.343795	-0.939026	-0.005966	0.939008	-0.343831	0.006589	-0.008238	-0.003337	0.999960	
4215														-0.062998	-0.036641	9.764612	-0.343796	-0.939025	-0.005962	0.939008	-0.343832	0.006550	-0.008201	-0.003347	0.999961	
4216														-0.052498	-0.053865	9.779493	-0.343778	-0.939032	-0.005959	0.939015	-0.343814	0.006567	-0.008215	-0.003338	0.999961	
4217														-0.079509	-0.033482	9.793237	-0.343780	-0.939032	-0.005949	0.939014	-0.343815	0.006596	-0.008240	-0.003319	0.999961	
4218														-0.067781	-0.050247	9.778859	-0.343742	-0.939045	-0.005970	0.939028	-0.343778	0.006575	-0.008226	-0.003346	0.999961	
4219														-0.065077	-0.035759	9.779237	-0.343744	-0.939044	-0.005972	0.939028	-0.343779	0.006556	-0.008209	-0.003354	0.999961	
4220														-0.053183	-0.052489	9.764862	-0.343726	-0.939051	-0.005965	0.939034	-0.343761	0.006552	-0.008203	-0.003349	0.999961	
4221														-0.054117	-0.052436	9.779492	-0.343726	-0.939051	-0.005966	0.939034	-0.343762	0.006536	-0.008188	-0.003355	0.999961	
4222														-0.072354	-0.063867	9.793109	-0.343725	-0.939051	-0.005971	0.939035	-0.343761	0.006540	-0.008194	-0.003359	0.999961	
4223														-0.069946	-0.049138	9.793485	-0.343709	-0.939057	-0.005961	0.939040	-0.343744	0.006569	-0.008217	-0.003340	0.999961	
4224														-0.068100	-0.048215	9.749595	-0.343708	-0.939058	-0.005986	0.939041	-0.343743	0.006513	-0.008173	-0.003383	0.999961	
4225														-0.069534	-0.048536	9.778855	-0.343746	-0.939044	-0.005967	0.939027	-0.343782	0.006500	-0.008155	-0.003368	0.999961	
4226														-0.071332	-0.048767	9.808113	-0.343746	-0.939044	-0.006001	0.939027	-0.343781	0.006518	-0.008184	-0.003394	0.999961	
4227														-0.056808	-0.051273	9.794118	-0.343728	-0.939050	-0.006006	0.939034	-0.343763	0.006522	-0.008189	-0.003398	0.999961	
4228														-0.056404	-0.050781	9.779488	-0.343747	-0.939043	-0.006008	0.939027	-0.343783	0.006505	-0.008174	-0.003405	0.999961	
4229														-0.068736	-0.033518	9.793855	-0.343730	-0.939049	-0.006007	0.939033	-0.343765	0.006487	-0.008157	-0.003411	0.999961	
4230														-0.056784	-0.050304	9.779488	-0.343731	-0.939049	-0.006008	0.939033	-0.343767	0.006470	-0.008141	-0.003418	0.999961	
4231														-0.071364	-0.047095	9.778849	-0.343731	-0.939049	-0.006001	0.939033	-0.343767	0.006466	-0.008134	-0.003412	0.999961	
4232														-0.071648	-0.046742	9.778849	-0.343733	-0.939048	-0.005995	0.939032	-0.343768	0.006461	-0.008128	-0.003408	0.999961	
4233														-0.057649	-0.049348	9.779488	-0.343733	-0.939048	-0.005999	0.939032	-0.343768	0.006464	-0.008133	-0.003412	0.999961	
4234														-0.058028	-0.048883	9.779488	-0.343772	-0.939034	-0.005964	0.939018	-0.343807	0.006477	-0.008133	-0.003373	0.999961	
4235														-0.059167	-0.048702	9.794117	-0.343755	-0.939040	-0.005982	0.939024	-0.343791	0.006489	-0.008150	-0.003387	0.999961	
4236														-0.070322	-0.031042	9.779217	-0.343756	-0.939040	-0.005995	0.939024	-0.343792	0.006480	-0.008146	-0.003402	0.999961	
4237														-0.044724	-0.050976	9.780129	-0.343738	-0.939047	-0.005981	0.939031	-0.343773	0.006456	-0.008118	-0.003398	0.999961	
4238														-0.072884	-0.044575	9.764214	-0.343719	-0.939053	-0.005974	0.939037	-0.343754	0.006453	-0.008113	-0.003392	0.999961	
4239														-0.060226	-0.047498	9.794116	-0.343722	-0.939053	-0.005947	0.939036	-0.343757	0.006452	-0.008103	-0.003367	0.999962	
4240														-0.076231	-0.058129	9.763842	-0.343720	-0.939053	-0.005957	0.939038	-0.343755	0.006422	-0.008078	-0.003386	0.999962	
4241														-0.075597	-0.044303	9.808102	-0.343702	-0.939060	-0.005959	0.939044	-0.343737	0.006404	-0.008062	-0.003395	0.999962	
4242														-0.045681	-0.049301	9.780133	-0.343741	-0.939046	-0.005940	0.939030	-0.343775	0.006391	-0.008044	-0.003381	0.999962	
4243														-0.045976	-0.049054	9.780133	-0.343722	-0.939052	-0.005967	0.939037	-0.343757	0.006389	-0.008051	-0.003407	0.999962	
4244														-0.061484	-0.046168	9.794115	-0.343841	-0.939008	-0.006080	0.938996	-0.343875	0.006025	-0.007748	-0.003638	0.999963	
4245														-0.060356	-0.045343	9.764856	-0.343839	-0.939009	-0.006068	0.938997	-0.343874	0.006000	-0.007721	-0.003635	0.999964	
4246														-0.077873	-0.056441	9.763839	-0.343827	-0.939013	-0.006066	0.939001	-0.343861	0.006017	-0.007736	-0.003627	0.999963	
4247														-0.061193	-0.044660	9.764854	-0.343819	-0.939016	-0.006079	0.939004	-0.343854	0.006043	-0.007764	-0.003631	0.999963	
4248														-0.065945	-0.059167	9.793742	-0.343821	-0.939015	-0.006073	0.939003	-0.343856	0.006038	-0.007758	-0.003627	0.999963	
4249														-0.061877	-0.044051	9.764852	-0.343841	-0.939008	-0.006075	0.938996	-0.343876	0.006021	-0.007743	-0.003634	0.999963	
4250														-0.080705	-0.055631	9.793094	-0.343840	-0.939009	-0.006055	0.938997	-0.343874	0.006010	-0.007725	-0.003619	0.999964	
4251														-0.079571	-0.054810	9.763835	-0.343808	-0.939021	-0.006061	0.939008	-0.343842	0.006014	-0.007732	-0.003624	0.999964	
4252														-0.079203	-0.054271	9.749204	-0.343815	-0.939018	-0.006055	0.939006	-0.343849	0.006010	-0.007725	-0.003619	0.999964	
4253														-0.046451	-0.031465	9.780499	-0.343813	-0.939019	-0.006050	0.939007	-0.343847	0.006005	-0.007719	-0.003617	0.999964	
4254														-0.082056	-0.054193	9.793091	-0.343832	-0.939012	-0.006043	0.938999	-0.343866	0.006034	-0.007744	-0.003599	0.999964	
4255														-0.060968	-0.027601	9.765215	-0.343829	-0.939013	-0.006057	0.939000	-0.343863	0.006025	-0.007741	-0.003616	0.999964	
4256														-0.068360	-0.056643	9.793741	-0.343838	-0.939009	-0.006067	0.938997	-0.343872	0.005994	-0.007714	-0.003636	0.999964	
4257														-0.084389	-0.054122	9.822344	-0.343852	-0.939004	-0.006095	0.938992	-0.343886	0.005992	-0.007723	-0.003663	0.999963	
4258														-0.067498	-0.055953	9.764479	-0.343793	-0.939026	-0.006096	0.939014	-0.343828	0.005976	-0.007707	-0.003670	0.999964	
4259														-0.069982	-0.056332	9.808367	-0.343808	-0.939020	-0.006096	0.939008	-0.343842	0.005993	-0.007723	-0.003664	0.999963	
4260														-0.054541	-0.058361	9.779763	-0.343827	-0.939013	-0.006077	0.939001	-0.343862	0.005980	-0.007705	-0.003651	0.999964	
4261														-0.065585	-0.040634	9.764843	-0.343823	-0.939015	-0.006106	0.939003	-0.343858	0.005979	-0.007714	-0.003677	0.999963	
4262														-0.067322	-0.040945	9.794100	-0.343805	-0.939021	-0.006106	0.939009	-0.343840	0.005961	-0.007697	-0.003684	0.999964	
4263														-0.068323	-0.040819	9.808729	-0.343825	-0.939014	-0.006092	0.939002	-0.343859	0.005970	-0.007700	-0.003667	0.999964	
4264														-0.066497	-0.039621	9.764841	-0.343809	-0.939020	-0.006065	0.939008	-0.343843	0.005972	-0.007693	-0.003642	0.999964	
4265														-0.069603	-0.053577	9.764478	-0.343792	-0.939026	-0.006067	0.939014	-0.343826	0.005955	-0.007678	-0.003649	0.999964	
4266														-0.054826	-0.042537	9.809386	-0.343793	-0.939026	-0.006073	0.939014	-0.343827	0.005958	-0.007683	-0.003654	0.999964	
4267														-0.058046	-0.056591	9.809023	-0.343811	-0.939019	-0.006068	0.939007	-0.343845	0.005954	-0.007677	-0.003651	0.999964	
4268														-0.068412	-0.038481	9.779467	-0.343810	-0.939020	-0.006054	0.939008	-0.343844	0.005963	-0.007681	-0.003635	0.999964	
4269														-0.069405	-0.038248	9.794096	-0.343811	-0.939020	-0.006036	0.939008	-0.343844	0.005950	-0.007663	-0.003622	0.999964	
4270														-0.070353	-0.051533	9.749848	-0.343793	-0.939026	-0.006030	0.939014	-0.343827	0.005947	-0.007657	-0.003617	0.999964	
4271														-0.069201	-0.037265	9.779466	-0.343778	-0.939032	-0.006023	0.939020	-0.343812	0.005943	-0.007652	-0.003612	0.999964	
4272														-0.060677	-0.068537	9.779409	-0.343777	-0.939032	-0.006006	0.939021	-0.343810	0.005898	-0.007604	-0.003612	0.999965	
4273														-0.071678	-0.050878	9.764477	-0.343773	-0.939034	-0.006041	0.939022	-0.343806	0.005917	-0.007633	-0.003638	0.999964	
4274														-0.058451	-0.053728	9.779767	-0.343781	-0.939031	-0.006021	0.939019	-0.343814	0.005905	-0.007615	-0.003623	0.999964	
4275														-0.070106	-0.036138	9.779464	-0.343766	-0.939036	-0.006022	0.939025	-0.343799	0.005887	-0.007598	-0.003631	0.999965	
4276														-0.088387	-0.047527	9.793070	-0.343767	-0.939035	-0.006022	0.939024	-0.343801	0.005903	-0.007614	-0.003625	0.999964	
4277														-0.056446	-0.038409	9.780125	-0.343766	-0.939036	-0.006024	0.939025	-0.343800	0.005886	-0.007598	-0.003633	0.999965	
4278														-0.059496	-0.052426	9.779768	-0.343767	-0.939036	-0.006005	0.939024	-0.343800	0.005873	-0.007580	-0.003620	0.999965	
4279														-0.074849	-0.049410	9.793732	-0.343772	-0.939034	-0.006012	0.939022	-0.343806	0.005877	-0.007586	-0.003625	0.999965	
4280														-0.072920	-0.048458	9.749845	-0.343795	-0.939026	-0.006001	0.939014	-0.343828	0.005852	-0.007559	-0.003623	0.999965	
4281														-0.057282	-0.037133	9.780125	-0.343774	-0.939033	-0.006003	0.939022	-0.343808	0.005835	-0.007543	-0.003631	0.999965	
4282														-0.057472	-0.036899	9.780125	-0.343832	-0.939012	-0.006006	0.939001	-0.343866	0.005817	-0.007527	-0.003640	0.999965	
4283														-0.060645	-0.051119	9.779768	-0.343810	-0.939020	-0.006034	0.939009	-0.343843	0.005815	-0.007536	-0.003667	0.999965	
4284														-0.060217	-0.050651	9.765138	-0.343815	-0.939018	-0.006014	0.939007	-0.343848	0.005803	-0.007517	-0.003652	0.999965	
4285														-0.061167	-0.050468	9.779768	-0.343817	-0.939017	-0.006009	0.939007	-0.343850	0.005799	-0.007511	-0.003648	0.999965	
4286														-0.059322	-0.036074	9.794751	-0.343800	-0.939024	-0.006023	0.939013	-0.343833	0.005790	-0.007508	-0.003665	0.999965	
4287														-0.063887	-0.064010	9.764784	-0.343822	-0.939016	-0.005997	0.939005	-0.343855	0.005790	-0.007499	-0.003640	0.999965	
4288														-0.061916	-0.049421	9.779769	-0.343838	-0.939010	-0.005987	0.938999	-0.343871	0.005765	-0.007472	-0.003639	0.999965	
4289														-0.074267	-0.032219	9.794082	-0.343840	-0.939009	-0.006009	0.938999	-0.343873	0.005742	-0.007458	-0.003668	0.999965	
4290														-0.065228	-0.063460	9.779414	-0.343843	-0.939008	-0.006016	0.938997	-0.343876	0.005745	-0.007464	-0.003674	0.999965	
4291														-0.051949	-0.066242	9.794712	-0.343809	-0.939020	-0.006010	0.939010	-0.343842	0.005741	-0.007458	-0.003669	0.999965	
4292														-0.091124	-0.042502	9.763795	-0.343792	-0.939027	-0.006022	0.939016	-0.343825	0.005766	-0.007485	-0.003673	0.999965	
4293														-0.048586	-0.050859	9.765806	-0.343811	-0.939019	-0.006029	0.939009	-0.343845	0.005770	-0.007491	-0.003678	0.999965	
4294														-0.079138	-0.045280	9.793719	-0.343794	-0.939026	-0.006035	0.939015	-0.343827	0.005773	-0.007496	-0.003683	0.999965	
4295														-0.075729	-0.030361	9.779442	-0.343816	-0.939018	-0.006011	0.939008	-0.343849	0.005740	-0.007457	-0.003671	0.999965	
4296														-0.050120	-0.050070	9.780436	-0.343798	-0.939024	-0.006010	0.939014	-0.343831	0.005756	-0.007471	-0.003665	0.999965	
4297														-0.062068	-0.032623	9.780112	-0.343815	-0.939018	-0.006038	0.939008	-0.343848	0.005754	-0.007480	-0.003691	0.999965	
4298														-0.068080	-0.061098	9.779409	-0.343779	-0.939031	-0.006018	0.939021	-0.343812	0.005743	-0.007462	-0.003677	0.999965	
4299														-0.064159	-0.032381	9.809368	-0.343781	-0.939030	-0.006018	0.939020	-0.343814	0.005760	-0.007478	-0.003670	0.999965	
4300														-0.069648	-0.060626	9.794036	-0.343780	-0.939031	-0.006038	0.939020	-0.343813	0.005772	-0.007496	-0.003685	0.999965	
4301														-0.063605	-0.031430	9.780106	-0.343783	-0.939030	-0.006032	0.939019	-0.343817	0.005768	-0.007490	-0.003681	0.999965	
4302														-0.068869	-0.059591	9.764778	-0.343766	-0.939036	-0.006025	0.939026	-0.343799	0.005765	-0.007485	-0.003676	0.999965	
4303														-0.069781	-0.059459	9.779407	-0.343785	-0.939029	-0.006015	0.939019	-0.343818	0.005740	-0.007458	-0.003675	0.999965	
4304														-0.068782	-0.045149	9.809013	-0.343749	-0.939042	-0.006018	0.939032	-0.343782	0.005778	-0.007495	-0.003665	0.999965	
4305														-0.069160	-0.058465	9.750148	-0.343788	-0.939028	-0.006041	0.939017	-0.343821	0.005755	-0.007481	-0.003694	0.999965	
4306														-0.068899	-0.044362	9.794381	-0.343733	-0.939048	-0.006010	0.939037	-0.343766	0.005791	-0.007504	-0.003653	0.999965	
4307														-0.057085	-0.060747	9.780085	-0.343736	-0.939047	-0.005983	0.939036	-0.343769	0.005791	-0.007495	-0.003628	0.999965	
4308														-0.068799	-0.043010	9.779753	-0.343721	-0.939053	-0.005963	0.939042	-0.343754	0.005780	-0.007477	-0.003613	0.999966	
4309														-0.071878	-0.056973	9.779407	-0.343723	-0.939052	-0.005957	0.939041	-0.343756	0.005775	-0.007471	-0.003609	0.999966	
4310														-0.072162	-0.056620	9.779407	-0.343724	-0.939052	-0.005952	0.939041	-0.343757	0.005771	-0.007466	-0.003606	0.999966	
4311														-0.069539	-0.041858	9.779753	-0.343762	-0.939038	-0.005934	0.939027	-0.343795	0.005759	-0.007448	-0.003593	0.999966	
4312														-0.069861	-0.041346	9.779752	-0.343762	-0.939038	-0.005913	0.939027	-0.343795	0.005781	-0.007462	-0.003565	0.999966	
4313														-0.059440	-0.058472	9.794719	-0.343764	-0.939037	-0.005936	0.939026	-0.343797	0.005758	-0.007448	-0.003594	0.999966	
4314														-0.070615	-0.040885	9.779749	-0.343748	-0.939043	-0.005948	0.939032	-0.343780	0.005782	-0.007475	-0.003598	0.999966	
4315														-0.074486	-0.055099	9.794033	-0.343751	-0.939042	-0.005923	0.939032	-0.343783	0.005749	-0.007435	-0.003586	0.999966	
4316														-0.066651	-0.025428	9.750835	-0.343751	-0.939042	-0.005926	0.939031	-0.343784	0.005732	-0.007420	-0.003594	0.999966	
4317														-0.059814	-0.057114	9.780091	-0.343718	-0.939054	-0.005923	0.939044	-0.343750	0.005749	-0.007435	-0.003586	0.999966	
4318														-0.071709	-0.039524	9.779747	-0.343737	-0.939047	-0.005918	0.939037	-0.343769	0.005745	-0.007429	-0.003582	0.999966	
4319														-0.059114	-0.042327	9.809690	-0.343719	-0.939054	-0.005890	0.939043	-0.343751	0.005747	-0.007421	-0.003556	0.999966	
4320														-0.075738	-0.053185	9.794034	-0.343738	-0.939047	-0.005880	0.939036	-0.343770	0.005722	-0.007395	-0.003555	0.999966	
4321														-0.042950	-0.043839	9.766493	-0.343741	-0.939046	-0.005887	0.939035	-0.343773	0.005725	-0.007400	-0.003560	0.999966	
4322														-0.073418	-0.038172	9.794374	-0.343743	-0.939045	-0.005868	0.939035	-0.343775	0.005713	-0.007382	-0.003546	0.999966	
4323														-0.090051	-0.049138	9.778718	-0.343725	-0.939052	-0.005869	0.939041	-0.343757	0.005696	-0.007366	-0.003554	0.999967	
4324														-0.046436	-0.057163	9.766155	-0.343747	-0.939044	-0.005850	0.939033	-0.343779	0.005683	-0.007348	-0.003540	0.999967	
4325														-0.076954	-0.051441	9.794034	-0.343748	-0.939044	-0.005850	0.939033	-0.343779	0.005699	-0.007363	-0.003534	0.999967	
4326														-0.058562	-0.039180	9.765805	-0.343749	-0.939043	-0.005839	0.939033	-0.343781	0.005674	-0.007335	-0.003532	0.999967	
4327														-0.061582	-0.053202	9.765468	-0.343732	-0.939050	-0.005832	0.939039	-0.343763	0.005670	-0.007329	-0.003527	0.999967	
4328														-0.059886	-0.038772	9.780433	-0.343733	-0.939049	-0.005852	0.939039	-0.343765	0.005681	-0.007347	-0.003542	0.999967	
4329														-0.063173	-0.052825	9.780094	-0.343756	-0.939041	-0.005838	0.939030	-0.343787	0.005690	-0.007350	-0.003527	0.999967	
4330														-0.077809	-0.049620	9.779402	-0.343739	-0.939047	-0.005839	0.939036	-0.343771	0.005672	-0.007334	-0.003534	0.999967	
4331														-0.074406	-0.034713	9.765110	-0.343741	-0.939046	-0.005820	0.939036	-0.343772	0.005660	-0.007316	-0.003519	0.999967	
4332														-0.050315	-0.054820	9.795416	-0.343761	-0.939039	-0.005827	0.939029	-0.343792	0.005664	-0.007322	-0.003525	0.999967	
4333														-0.064159	-0.051481	9.780094	-0.343762	-0.939039	-0.005816	0.939028	-0.343793	0.005640	-0.007295	-0.003522	0.999967	
4334														-0.066487	-0.065359	9.765131	-0.343761	-0.939039	-0.005823	0.939029	-0.343793	0.005644	-0.007302	-0.003528	0.999967	
4335														-0.061741	-0.036474	9.780430	-0.343744	-0.939045	-0.005798	0.939035	-0.343775	0.005612	-0.007264	-0.003516	0.999967	
4336														-0.054033	-0.067849	9.795084	-0.343766	-0.939038	-0.005797	0.939027	-0.343797	0.005629	-0.007279	-0.003509	0.999967	
4337														-0.078971	-0.047180	9.764769	-0.343765	-0.939038	-0.005831	0.939027	-0.343797	0.005648	-0.007309	-0.003534	0.999967	
4338														-0.066514	-0.050155	9.794720	-0.343767	-0.939037	-0.005812	0.939027	-0.343798	0.005636	-0.007290	-0.003520	0.999967	
4339														-0.052400	-0.052703	9.795416	-0.343749	-0.939044	-0.005826	0.939033	-0.343780	0.005627	-0.007287	-0.003537	0.999967	
4340														-0.079903	-0.046378	9.764766	-0.343749	-0.939044	-0.005821	0.939034	-0.343780	0.005623	-0.007281	-0.003533	0.999967	
4341														-0.067391	-0.049300	9.794718	-0.343749	-0.939043	-0.005828	0.939033	-0.343780	0.005626	-0.007287	-0.003539	0.999967	
4342														-0.064048	-0.034445	9.780422	-0.343752	-0.939042	-0.005816	0.939032	-0.343783	0.005601	-0.007259	-0.003536	0.999967	
4343														-0.084196	-0.060053	9.779060	-0.343752	-0.939042	-0.005818	0.939032	-0.343783	0.005585	-0.007244	-0.003543	0.999967	
4344														-0.067999	-0.048423	9.794718	-0.343752	-0.939042	-0.005812	0.939032	-0.343783	0.005581	-0.007239	-0.003539	0.999968	
4345														-0.050305	-0.036410	9.781121	-0.343733	-0.939049	-0.005814	0.939039	-0.343764	0.005564	-0.007224	-0.003547	0.999968	
4346														-0.066927	-0.047505	9.765462	-0.343715	-0.939056	-0.005815	0.939046	-0.343746	0.005547	-0.007208	-0.003554	0.999968	
4347														-0.082373	-0.044547	9.779389	-0.343734	-0.939049	-0.005815	0.939039	-0.343765	0.005564	-0.007224	-0.003548	0.999968	
4348														-0.068468	-0.047074	9.780087	-0.343734	-0.939049	-0.005823	0.939039	-0.343765	0.005568	-0.007230	-0.003554	0.999968	
4349														-0.055267	-0.049846	9.795416	-0.343753	-0.939042	-0.005831	0.939032	-0.343784	0.005571	-0.007236	-0.003560	0.999967	
4350														-0.066441	-0.032192	9.780414	-0.343755	-0.939041	-0.005838	0.939031	-0.343786	0.005574	-0.007241	-0.003566	0.999967	
4351														-0.069648	-0.046095	9.780084	-0.343777	-0.939033	-0.005804	0.939023	-0.343808	0.005588	-0.007242	-0.003529	0.999968	
4352														-0.070839	-0.045862	9.794710	-0.343777	-0.939033	-0.005824	0.939023	-0.343808	0.005599	-0.007260	-0.003544	0.999967	
4353														-0.058260	-0.062487	9.765829	-0.343779	-0.939032	-0.005831	0.939022	-0.343810	0.005602	-0.007266	-0.003549	0.999967	
4354														-0.070839	-0.045211	9.780079	-0.343725	-0.939052	-0.005832	0.939042	-0.343756	0.005586	-0.007250	-0.003556	0.999967	
4355														-0.055364	-0.047309	9.751529	-0.343727	-0.939052	-0.005824	0.939042	-0.343758	0.005616	-0.007276	-0.003538	0.999967	
4356														-0.070911	-0.044237	9.765449	-0.343729	-0.939051	-0.005818	0.939041	-0.343760	0.005612	-0.007270	-0.003534	0.999967	
4357														-0.061935	-0.061642	9.809712	-0.343732	-0.939050	-0.005811	0.939040	-0.343763	0.005608	-0.007264	-0.003530	0.999967	
4358														-0.057184	-0.046412	9.766155	-0.343715	-0.939056	-0.005818	0.939046	-0.343746	0.005612	-0.007270	-0.003535	0.999967	
4359														-0.061105	-0.060660	9.780456	-0.343736	-0.939048	-0.005813	0.939038	-0.343767	0.005607	-0.007264	-0.003531	0.999967	
4360														-0.074545	-0.043461	9.809328	-0.343755	-0.939041	-0.005813	0.939031	-0.343786	0.005624	-0.007279	-0.003526	0.999967	
4361														-0.072716	-0.042600	9.765443	-0.343756	-0.939041	-0.005821	0.939031	-0.343787	0.005627	-0.007285	-0.003532	0.999967	
4362														-0.045178	-0.048292	9.781489	-0.343738	-0.939047	-0.005849	0.939037	-0.343769	0.005626	-0.007293	-0.003559	0.999967	
4363														-0.075480	-0.056383	9.750487	-0.343720	-0.939054	-0.005829	0.939044	-0.343752	0.005614	-0.007276	-0.003544	0.999967	
4364														-0.060123	-0.044957	9.780778	-0.343664	-0.939072	-0.006252	0.939064	-0.343698	0.005547	-0.007358	-0.003965	0.999965	
4365														-0.061238	-0.044937	9.795404	-0.343658	-0.939074	-0.006246	0.939066	-0.343692	0.005544	-0.007353	-0.003961	0.999965	
4366														-0.075269	-0.041505	9.780063	-0.343658	-0.939074	-0.006239	0.939066	-0.343692	0.005575	-0.007379	-0.003943	0.999965	
4367														-0.065656	-0.058807	9.809705	-0.343667	-0.939071	-0.006262	0.939063	-0.343701	0.005552	-0.007366	-0.003972	0.999965	
4368														-0.061657	-0.043770	9.780773	-0.343669	-0.939070	-0.006241	0.939062	-0.343703	0.005575	-0.007380	-0.003945	0.999965	
4369														-0.079170	-0.055008	9.779735	-0.343663	-0.939072	-0.006265	0.939064	-0.343697	0.005553	-0.007368	-0.003975	0.999965	
4370														-0.052283	-0.060770	9.810419	-0.343648	-0.939078	-0.006251	0.939069	-0.343682	0.005563	-0.007372	-0.003958	0.999965	
4371														-0.051097	-0.060106	9.781164	-0.343662	-0.939072	-0.006266	0.939064	-0.343696	0.005554	-0.007369	-0.003976	0.999965	
4372														-0.062876	-0.042614	9.780771	-0.343659	-0.939074	-0.006248	0.939066	-0.343693	0.005543	-0.007353	-0.003963	0.999965	
4373														-0.067505	-0.056988	9.809704	-0.343665	-0.939072	-0.006256	0.939064	-0.343699	0.005547	-0.007359	-0.003968	0.999965	
4374														-0.064328	-0.042179	9.795396	-0.343664	-0.939072	-0.006263	0.939064	-0.343698	0.005551	-0.007366	-0.003974	0.999965	
4375														-0.083175	-0.067487	9.764780	-0.343667	-0.939071	-0.006271	0.939063	-0.343701	0.005555	-0.007372	-0.003980	0.999965	
4376														-0.067127	-0.055913	9.780445	-0.343648	-0.939077	-0.006286	0.939069	-0.343683	0.005547	-0.007369	-0.003997	0.999965	
4377														-0.049525	-0.043775	9.766858	-0.343647	-0.939078	-0.006252	0.939070	-0.343681	0.005562	-0.007372	-0.003959	0.999965	
4378														-0.070438	-0.069425	9.780127	-0.343650	-0.939077	-0.006249	0.939069	-0.343684	0.005524	-0.007336	-0.003970	0.999965	
4379														-0.064194	-0.040326	9.766139	-0.343664	-0.939072	-0.006264	0.939064	-0.343698	0.005516	-0.007333	-0.003987	0.999965	
4380														-0.065257	-0.040255	9.780765	-0.343660	-0.939073	-0.006259	0.939066	-0.343694	0.005513	-0.007328	-0.003983	0.999965	
4381														-0.065485	-0.039852	9.780765	-0.343642	-0.939080	-0.006240	0.939072	-0.343675	0.005502	-0.007311	-0.003969	0.999965	
4382														-0.055712	-0.057097	9.810422	-0.343664	-0.939072	-0.006256	0.939064	-0.343698	0.005492	-0.007308	-0.003987	0.999965	
4383														-0.068883	-0.053729	9.780445	-0.343649	-0.939077	-0.006263	0.939070	-0.343683	0.005496	-0.007314	-0.003993	0.999965	
4384														-0.068350	-0.053257	9.765818	-0.343632	-0.939083	-0.006252	0.939076	-0.343666	0.005472	-0.007288	-0.003990	0.999965	
4385														-0.084379	-0.050499	9.794350	-0.343650	-0.939077	-0.006255	0.939070	-0.343684	0.005455	-0.007273	-0.003999	0.999966	
4386														-0.066743	-0.038521	9.780762	-0.343616	-0.939089	-0.006262	0.939082	-0.343649	0.005460	-0.007279	-0.004004	0.999965	
4387														-0.067086	-0.038211	9.780761	-0.343617	-0.939089	-0.006256	0.939082	-0.343651	0.005457	-0.007274	-0.004000	0.999966	
4388														-0.055771	-0.055104	9.781168	-0.343600	-0.939095	-0.006258	0.939088	-0.343633	0.005440	-0.007259	-0.004008	0.999966	
4389														-0.067668	-0.037606	9.780759	-0.343599	-0.939096	-0.006258	0.939088	-0.343632	0.005458	-0.007276	-0.004002	0.999966	
4390														-0.073615	-0.066049	9.780127	-0.343602	-0.939095	-0.006261	0.939087	-0.343636	0.005441	-0.007261	-0.004010	0.999966	
4391														-0.053797	-0.039934	9.781483	-0.343602	-0.939094	-0.006271	0.939087	-0.343636	0.005411	-0.007237	-0.004029	0.999966	
4392														-0.085723	-0.048526	9.779714	-0.343583	-0.939101	-0.006297	0.939094	-0.343617	0.005444	-0.007277	-0.004043	0.999965	
4393														-0.071939	-0.051224	9.780437	-0.343604	-0.939093	-0.006326	0.939086	-0.343639	0.005443	-0.007285	-0.004070	0.999965	
4394														-0.059636	-0.054109	9.810416	-0.343608	-0.939092	-0.006318	0.939085	-0.343642	0.005473	-0.007311	-0.004052	0.999965	
4395														-0.083607	-0.033132	9.765393	-0.343594	-0.939097	-0.006299	0.939090	-0.343628	0.005462	-0.007294	-0.004038	0.999965	
4396														-0.073109	-0.050132	9.780434	-0.343595	-0.939097	-0.006307	0.939090	-0.343629	0.005466	-0.007300	-0.004044	0.999965	
4397														-0.057859	-0.038701	9.810729	-0.343575	-0.939104	-0.006322	0.939097	-0.343609	0.005458	-0.007298	-0.004062	0.999965	
4398														-0.073757	-0.049680	9.780431	-0.343579	-0.939102	-0.006316	0.939095	-0.343614	0.005454	-0.007292	-0.004058	0.999965	
4399														-0.074914	-0.049378	9.795057	-0.343562	-0.939109	-0.006295	0.939102	-0.343596	0.005477	-0.007307	-0.004030	0.999965	
4400														-0.071827	-0.034356	9.780742	-0.343581	-0.939102	-0.006296	0.939095	-0.343615	0.005495	-0.007323	-0.004024	0.999965	
4401														-0.075060	-0.048308	9.780428	-0.343523	-0.939123	-0.006281	0.939116	-0.343557	0.005506	-0.007328	-0.004007	0.999965	
4402														-0.061871	-0.050911	9.795787	-0.343524	-0.939123	-0.006289	0.939115	-0.343558	0.005510	-0.007335	-0.004013	0.999965	
4403														-0.064180	-0.064873	9.780848	-0.343525	-0.939122	-0.006291	0.939115	-0.343559	0.005493	-0.007320	-0.004021	0.999965	
4404														-0.077496	-0.047783	9.809679	-0.343527	-0.939122	-0.006293	0.939114	-0.343561	0.005477	-0.007305	-0.004028	0.999965	
4405														-0.060882	-0.049866	9.766533	-0.343528	-0.939121	-0.006290	0.939114	-0.343562	0.005440	-0.007269	-0.004038	0.999965	
4406														-0.061910	-0.049840	9.781160	-0.343529	-0.939121	-0.006311	0.939114	-0.343563	0.005451	-0.007288	-0.004054	0.999965	
4407														-0.065253	-0.063890	9.780848	-0.343531	-0.939120	-0.006303	0.939113	-0.343566	0.005482	-0.007314	-0.004036	0.999965	
4408														-0.059233	-0.034667	9.766840	-0.343538	-0.939118	-0.006313	0.939111	-0.343572	0.005452	-0.007289	-0.004056	0.999965	
4409														-0.081871	-0.060909	9.809363	-0.343558	-0.939110	-0.006327	0.939103	-0.343592	0.005476	-0.007317	-0.004060	0.999965	
4410														-0.063643	-0.048528	9.781155	-0.343527	-0.939122	-0.006292	0.939114	-0.343561	0.005492	-0.007319	-0.004022	0.999965	
4411														-0.058505	-0.019348	9.781771	-0.343530	-0.939120	-0.006313	0.939113	-0.343565	0.005503	-0.007337	-0.004038	0.999965	
4412														-0.052804	-0.065030	9.781584	-0.343510	-0.939128	-0.006301	0.939120	-0.343544	0.005480	-0.007311	-0.004035	0.999965	
4413														-0.065388	-0.047609	9.795781	-0.343496	-0.939133	-0.006288	0.939126	-0.343530	0.005490	-0.007316	-0.004019	0.999965	
4414														-0.062151	-0.032657	9.781461	-0.343499	-0.939132	-0.006283	0.939125	-0.343533	0.005486	-0.007311	-0.004016	0.999965	
4415														-0.068075	-0.061210	9.780846	-0.343481	-0.939139	-0.006311	0.939131	-0.343515	0.005486	-0.007320	-0.004043	0.999965	
4416														-0.093681	-0.040868	9.765041	-0.343498	-0.939132	-0.006312	0.939125	-0.343532	0.005503	-0.007337	-0.004037	0.999965	
4417														-0.080335	-0.043425	9.780409	-0.343482	-0.939138	-0.006287	0.939131	-0.343516	0.005472	-0.007298	-0.004025	0.999965	
4418														-0.067634	-0.046308	9.810404	-0.343481	-0.939138	-0.006309	0.939131	-0.343515	0.005450	-0.007286	-0.004053	0.999965	
4419														-0.069820	-0.060290	9.795472	-0.343483	-0.939138	-0.006291	0.939131	-0.343517	0.005439	-0.007269	-0.004040	0.999965	
4420														-0.052166	-0.048089	9.781894	-0.343484	-0.939137	-0.006278	0.939130	-0.343518	0.005449	-0.007274	-0.004024	0.999965	
4421														-0.069755	-0.059357	9.780845	-0.343486	-0.939137	-0.006298	0.939130	-0.343520	0.005461	-0.007292	-0.004039	0.999965	
4422														-0.070896	-0.059310	9.795470	-0.343452	-0.939149	-0.006300	0.939142	-0.343486	0.005445	-0.007277	-0.004046	0.999965	
4423														-0.065526	-0.030312	9.796078	-0.343474	-0.939141	-0.006303	0.939134	-0.343508	0.005428	-0.007263	-0.004055	0.999965	
4424														-0.056973	-0.061671	9.796215	-0.343456	-0.939148	-0.006318	0.939141	-0.343490	0.005419	-0.007260	-0.004072	0.999965	
4425														-0.069213	-0.058220	9.751590	-0.343476	-0.939140	-0.006321	0.939134	-0.343509	0.005402	-0.007245	-0.004081	0.999965	
4426														-0.068298	-0.043800	9.781146	-0.343460	-0.939146	-0.006307	0.939139	-0.343494	0.005412	-0.007250	-0.004065	0.999965	
4427														-0.069412	-0.043435	9.795772	-0.343442	-0.939153	-0.006280	0.939146	-0.343476	0.005415	-0.007243	-0.004038	0.999966	
4428														-0.069002	-0.042812	9.781145	-0.343461	-0.939146	-0.006281	0.939139	-0.343495	0.005433	-0.007259	-0.004033	0.999966	
4429														-0.057712	-0.059734	9.781591	-0.343463	-0.939145	-0.006291	0.939138	-0.343497	0.005403	-0.007235	-0.004052	0.999966	
4430														-0.070327	-0.042426	9.795770	-0.343484	-0.939137	-0.006278	0.939131	-0.343518	0.005413	-0.007240	-0.004037	0.999966	
4431														-0.058445	-0.059070	9.781590	-0.343502	-0.939131	-0.006292	0.939124	-0.343536	0.005438	-0.007269	-0.004041	0.999965	
4432														-0.069475	-0.041453	9.766515	-0.343467	-0.939144	-0.006275	0.939137	-0.343500	0.005394	-0.007221	-0.004041	0.999966	
4433														-0.056040	-0.044102	9.781892	-0.343470	-0.939143	-0.006282	0.939136	-0.343504	0.005398	-0.007228	-0.004046	0.999966	
4434														-0.073575	-0.055438	9.780840	-0.343474	-0.939141	-0.006290	0.939134	-0.343508	0.005402	-0.007234	-0.004052	0.999966	
4435														-0.071145	-0.040754	9.781139	-0.343493	-0.939134	-0.006285	0.939128	-0.343526	0.005398	-0.007229	-0.004049	0.999966	
4436														-0.059889	-0.057513	9.781591	-0.343516	-0.939126	-0.006273	0.939119	-0.343549	0.005408	-0.007234	-0.004034	0.999966	
4437														-0.058196	-0.042931	9.796516	-0.343518	-0.939125	-0.006276	0.939118	-0.343551	0.005391	-0.007219	-0.004042	0.999966	
4438														-0.074830	-0.054129	9.780838	-0.343519	-0.939125	-0.006282	0.939118	-0.343553	0.005395	-0.007225	-0.004047	0.999966	
4439														-0.075220	-0.053764	9.780837	-0.343505	-0.939130	-0.006269	0.939123	-0.343538	0.005405	-0.007230	-0.004031	0.999966	
4440														-0.058536	-0.041848	9.781887	-0.343505	-0.939130	-0.006289	0.939123	-0.343539	0.005417	-0.007248	-0.004045	0.999966	
4441														-0.078896	-0.067617	9.780536	-0.343504	-0.939130	-0.006297	0.939123	-0.343538	0.005422	-0.007255	-0.004051	0.999965	
4442														-0.060172	-0.041320	9.796511	-0.343541	-0.939117	-0.006264	0.939110	-0.343575	0.005437	-0.007258	-0.004015	0.999966	
4443														-0.064542	-0.069261	9.766666	-0.343505	-0.939130	-0.006263	0.939123	-0.343539	0.005455	-0.007275	-0.004008	0.999966	
4444														-0.060240	-0.040221	9.781883	-0.343506	-0.939130	-0.006250	0.939122	-0.343539	0.005465	-0.007279	-0.003993	0.999966	
4445														-0.076961	-0.051315	9.766204	-0.343527	-0.939122	-0.006259	0.939114	-0.343561	0.005469	-0.007286	-0.003999	0.999965	
4446														-0.079810	-0.051437	9.810079	-0.343509	-0.939129	-0.006258	0.939121	-0.343543	0.005487	-0.007303	-0.003992	0.999965	
4447														-0.052535	-0.070730	9.782051	-0.343511	-0.939128	-0.006248	0.939120	-0.343545	0.005463	-0.007277	-0.003991	0.999966	
4448														-0.060849	-0.038691	9.767254	-0.343529	-0.939121	-0.006248	0.939114	-0.343563	0.005481	-0.007294	-0.003985	0.999965	
4449														-0.093589	-0.047346	9.780065	-0.343492	-0.939135	-0.006255	0.939127	-0.343526	0.005486	-0.007301	-0.003990	0.999965	
4450														-0.076767	-0.035594	9.781116	-0.343492	-0.939135	-0.006278	0.939127	-0.343526	0.005464	-0.007288	-0.004019	0.999965	
4451														-0.065464	-0.052503	9.781583	-0.343475	-0.939141	-0.006265	0.939134	-0.343509	0.005474	-0.007293	-0.004003	0.999965	
4452														-0.063789	-0.037908	9.796502	-0.343477	-0.939140	-0.006267	0.939133	-0.343511	0.005458	-0.007278	-0.004011	0.999965	
4453														-0.065173	-0.051602	9.766958	-0.343461	-0.939146	-0.006241	0.939139	-0.343495	0.005460	-0.007271	-0.003986	0.999966	
4454														-0.056258	-0.068724	9.811307	-0.343464	-0.939145	-0.006235	0.939138	-0.343498	0.005457	-0.007266	-0.003981	0.999966	
4455														-0.067246	-0.051190	9.796210	-0.343485	-0.939137	-0.006246	0.939130	-0.343519	0.005427	-0.007242	-0.004002	0.999966	
4456														-0.066736	-0.050796	9.781584	-0.343429	-0.939158	-0.006245	0.939150	-0.343463	0.005445	-0.007259	-0.003995	0.999966	
4457														-0.095796	-0.044837	9.780055	-0.343432	-0.939157	-0.006226	0.939150	-0.343465	0.005434	-0.007242	-0.003981	0.999966	
4458														-0.079650	-0.032917	9.795735	-0.343435	-0.939156	-0.006208	0.939149	-0.343468	0.005423	-0.007225	-0.003967	0.999966	
4459														-0.065912	-0.049296	9.752333	-0.343416	-0.939163	-0.006215	0.939155	-0.343449	0.005428	-0.007232	-0.003972	0.999966	
4460														-0.065109	-0.034886	9.781873	-0.343434	-0.939156	-0.006210	0.939149	-0.343467	0.005425	-0.007228	-0.003969	0.999966	
4461														-0.068210	-0.048964	9.781583	-0.343418	-0.939162	-0.006216	0.939155	-0.343451	0.005430	-0.007234	-0.003974	0.999966	
4462														-0.069322	-0.048958	9.796207	-0.343420	-0.939161	-0.006239	0.939154	-0.343453	0.005408	-0.007222	-0.004003	0.999966	
4463														-0.071671	-0.062943	9.781292	-0.343401	-0.939168	-0.006231	0.939161	-0.343434	0.005439	-0.007248	-0.003984	0.999966	
4464														-0.081561	-0.031143	9.795725	-0.343404	-0.939167	-0.006215	0.939160	-0.343438	0.005394	-0.007200	-0.003984	0.999966	
4465														-0.071201	-0.061908	9.766669	-0.343406	-0.939167	-0.006181	0.939159	-0.343439	0.005409	-0.007203	-0.003948	0.999966	
4466														-0.067701	-0.033051	9.796493	-0.343427	-0.939159	-0.006210	0.939152	-0.343461	0.005408	-0.007212	-0.003975	0.999966	
4467														-0.057635	-0.064159	9.767436	-0.343410	-0.939165	-0.006218	0.939158	-0.343443	0.005413	-0.007219	-0.003981	0.999966	
4468														-0.072351	-0.061192	9.766665	-0.343410	-0.939165	-0.006234	0.939158	-0.343443	0.005404	-0.007217	-0.003999	0.999966	
4469														-0.069903	-0.046665	9.766950	-0.343410	-0.939165	-0.006250	0.939158	-0.343443	0.005396	-0.007214	-0.004016	0.999966	
4470														-0.073703	-0.060890	9.781290	-0.343409	-0.939165	-0.006232	0.939159	-0.343442	0.005385	-0.007198	-0.004003	0.999966	
4471														-0.071896	-0.046357	9.796201	-0.343429	-0.939158	-0.006242	0.939151	-0.343462	0.005355	-0.007173	-0.004023	0.999966	
4472														-0.057817	-0.048767	9.796972	-0.343430	-0.939158	-0.006222	0.939151	-0.343463	0.005379	-0.007188	-0.003996	0.999966	
4473														-0.088828	-0.057189	9.780517	-0.343430	-0.939157	-0.006245	0.939151	-0.343464	0.005357	-0.007176	-0.004025	0.999966	
4474														-0.059474	-0.062335	9.767437	-0.343394	-0.939171	-0.006225	0.939164	-0.343427	0.005347	-0.007160	-0.004011	0.999966	
4475														-0.069277	-0.030545	9.781859	-0.343414	-0.939164	-0.006215	0.939157	-0.343447	0.005323	-0.007133	-0.004009	0.999967	
4476														-0.058654	-0.047481	9.796974	-0.343416	-0.939163	-0.006210	0.939157	-0.343448	0.005320	-0.007129	-0.004005	0.999967	
4477														-0.058939	-0.047127	9.796974	-0.343418	-0.939162	-0.006205	0.939156	-0.343451	0.005316	-0.007124	-0.004001	0.999967	
4478														-0.064671	-0.075602	9.796409	-0.343421	-0.939161	-0.006206	0.939155	-0.343454	0.005300	-0.007109	-0.004009	0.999967	
4479														-0.058649	-0.046345	9.782349	-0.343423	-0.939160	-0.006193	0.939154	-0.343456	0.005310	-0.007114	-0.003993	0.999967	
4480														-0.074152	-0.043201	9.796199	-0.343406	-0.939167	-0.006166	0.939160	-0.343438	0.005313	-0.007107	-0.003967	0.999967	
4481														-0.064699	-0.074301	9.781787	-0.343406	-0.939167	-0.006189	0.939160	-0.343439	0.005291	-0.007095	-0.003996	0.999967	
4482														-0.075914	-0.056874	9.766665	-0.343389	-0.939173	-0.006203	0.939166	-0.343422	0.005316	-0.007123	-0.004000	0.999967	
4483														-0.075193	-0.042383	9.796194	-0.343392	-0.939172	-0.006184	0.939165	-0.343424	0.005305	-0.007106	-0.003986	0.999967	
4484														-0.060296	-0.044654	9.782346	-0.343697	-0.939059	-0.006332	0.939054	-0.343730	0.005283	-0.007138	-0.004131	0.999966	
4485														-0.074188	-0.041466	9.766942	-0.343690	-0.939062	-0.006327	0.939056	-0.343724	0.005280	-0.007134	-0.004127	0.999966	
4486														-0.076108	-0.041368	9.796192	-0.343673	-0.939068	-0.006322	0.939062	-0.343706	0.005278	-0.007129	-0.004123	0.999966	
4487														-0.064864	-0.058038	9.796692	-0.343694	-0.939061	-0.006302	0.939054	-0.343727	0.005301	-0.007144	-0.004096	0.999966	
4488														-0.064321	-0.057457	9.782067	-0.343722	-0.939051	-0.006292	0.939045	-0.343755	0.005276	-0.007118	-0.004095	0.999966	
