// Start Time: Unknown: 
// Update Rate: 100.0Hz 
// Filter Profile: human (46.1) 
// Firmware Version: 4.6.0
PacketCounter	SampleTimeFine	Year	Month	Day	Second	UTC_Nano	UTC_Year	UTC_Month	UTC_Day UTC_Hour	UTC_Minute	UTC_Second	UTC_Valid	Acc_X	Acc_Y	Acc_Z	Mat[1][1]	Mat[2][1]	Mat[3][1]	Mat[1][2]	Mat[2][2]	Mat[3][2]	Mat[1][3]	Mat[2][3]	Mat[3][3] 
4294														0.024414	-0.024414	9.765625	0.799395	0.600805	-0.000496	-0.600800	0.799392	0.003500	0.002500	-0.002500	0.999994	
4295														0.073242	-0.000076	9.741211	0.790034	0.613035	-0.005940	-0.613017	0.790056	0.004609	0.007519	-0.000000	0.999972	
4296														0.073317	0.024188	9.741211	0.794767	0.606906	-0.003222	-0.606894	0.794773	0.004054	0.005021	-0.001267	0.999987	
4297														0.073391	-0.000376	9.741210	0.794776	0.606894	-0.003213	-0.606882	0.794782	0.004067	0.005021	-0.001282	0.999987	
5356														0.083965	-0.033316	9.765268	0.793730	0.608240	-0.005958	-0.608219	0.793753	0.005149	0.007861	-0.000463	0.999969	
5357														0.059925	0.015873	9.741289	0.793715	0.608261	-0.005936	-0.608240	0.793737	0.005144	0.007840	-0.000472	0.999969	
5358														0.084040	0.015790	9.692313	0.793727	0.608245	-0.005947	-0.608223	0.793749	0.005144	0.007849	-0.000466	0.999969	
5359														0.060811	-0.009841	9.936452	0.793730	0.608242	-0.005924	-0.608220	0.793752	0.005139	0.007828	-0.000476	0.999969	
5360														0.083819	0.015860	9.667901	0.793712	0.608265	-0.005932	-0.608243	0.793734	0.005119	0.007823	-0.000455	0.999969	
5361														0.059776	-0.008758	9.765560	0.793724	0.608249	-0.005943	-0.608228	0.793746	0.005121	0.007832	-0.000450	0.999969	
5362														0.059627	-0.008763	9.741147	0.793721	0.608253	-0.005912	-0.608232	0.793743	0.005128	0.007811	-0.000475	0.999969	
5363														0.059849	-0.009057	9.765559	0.793724	0.608250	-0.005935	-0.608228	0.793746	0.005139	0.007837	-0.000469	0.999969	
5364														0.036109	0.015724	9.765851	0.793711	0.608266	-0.005980	-0.608244	0.793733	0.005148	0.007878	-0.000449	0.999969	
5365														0.060146	-0.008698	9.716730	0.793704	0.608274	-0.005969	-0.608253	0.793727	0.005152	0.007872	-0.000458	0.999969	
5366														0.085231	-0.009724	9.814230	0.793711	0.608265	-0.005972	-0.608243	0.793734	0.005165	0.007882	-0.000467	0.999969	
5367														0.110092	0.014312	9.814220	0.793714	0.608262	-0.005983	-0.608240	0.793736	0.005167	0.007892	-0.000462	0.999969	
5368														0.085379	-0.009807	9.789814	0.793704	0.608275	-0.005976	-0.608253	0.793726	0.005193	0.007902	-0.000487	0.999969	
5369														0.061266	-0.009879	9.814378	0.793697	0.608284	-0.005977	-0.608262	0.793720	0.005206	0.007911	-0.000496	0.999969	
5370														0.060737	-0.009296	9.716725	0.793713	0.608263	-0.005986	-0.608241	0.793736	0.005186	0.007906	-0.000475	0.999969	
5371														0.085604	-0.034662	9.838494	0.793697	0.608283	-0.005985	-0.608262	0.793720	0.005178	0.007901	-0.000469	0.999969	
5372														0.061413	0.014824	9.765695	0.793690	0.608292	-0.005987	-0.608270	0.793713	0.005192	0.007910	-0.000479	0.999969	
5373														0.085750	-0.010184	9.789810	0.793693	0.608289	-0.005977	-0.608267	0.793715	0.005196	0.007905	-0.000489	0.999969	
5374														0.085824	-0.010334	9.789810	0.793695	0.608287	-0.005979	-0.608265	0.793717	0.005210	0.007914	-0.000498	0.999969	
5375														0.061335	-0.010038	9.765549	0.793688	0.608295	-0.005968	-0.608273	0.793711	0.005214	0.007909	-0.000508	0.999969	
5376														0.085824	-0.010560	9.789809	0.793705	0.608274	-0.005956	-0.608252	0.793727	0.005197	0.007889	-0.000502	0.999969	
5377														0.061111	-0.010186	9.765551	0.793708	0.608270	-0.005934	-0.608249	0.793730	0.005191	0.007868	-0.000511	0.999969	
5378														0.061111	-0.010261	9.765550	0.793705	0.608274	-0.005945	-0.608252	0.793727	0.005193	0.007877	-0.000506	0.999969	
5379														0.085824	0.014219	9.741128	0.793698	0.608283	-0.005984	-0.608261	0.793720	0.005159	0.007887	-0.000455	0.999969	
5380														0.085523	-0.034751	9.789665	0.793705	0.608273	-0.005962	-0.608251	0.793728	0.005154	0.007867	-0.000464	0.999969	
5381														0.036928	0.014896	9.741435	0.793708	0.608270	-0.005961	-0.608248	0.793730	0.005146	0.007862	-0.000459	0.999969	
5382														0.085145	-0.034607	9.740839	0.793727	0.608245	-0.005950	-0.608224	0.793749	0.005149	0.007855	-0.000468	0.999969	
5383														0.086130	0.013845	9.789955	0.793739	0.608230	-0.005961	-0.608208	0.793761	0.005150	0.007865	-0.000462	0.999969	
5384														0.061259	-0.010044	9.741136	0.793732	0.608238	-0.005963	-0.608216	0.793755	0.005165	0.007874	-0.000473	0.999969	
5385														0.085898	-0.010496	9.765394	0.793716	0.608259	-0.005971	-0.608237	0.793739	0.005145	0.007869	-0.000452	0.999969	
5386														0.061561	-0.010119	9.765548	0.793736	0.608233	-0.005982	-0.608212	0.793758	0.005146	0.007879	-0.000446	0.999969	
5387														0.085972	-0.010648	9.765393	0.793729	0.608242	-0.005941	-0.608220	0.793751	0.005165	0.007858	-0.000486	0.999969	
5388														0.086277	0.013615	9.765540	0.793724	0.608249	-0.005962	-0.608227	0.793746	0.005155	0.007867	-0.000465	0.999969	
5389														0.061941	0.013993	9.765693	0.793736	0.608233	-0.005961	-0.608212	0.793758	0.005147	0.007862	-0.000460	0.999969	
5390														0.061482	-0.010271	9.741134	0.793746	0.608220	-0.005961	-0.608198	0.793768	0.005146	0.007862	-0.000459	0.999969	
5391														0.086121	-0.010725	9.765392	0.793749	0.608217	-0.005972	-0.608195	0.793771	0.005148	0.007871	-0.000454	0.999969	
5392														0.086349	0.013759	9.741124	0.793739	0.608230	-0.005962	-0.608208	0.793761	0.005152	0.007866	-0.000463	0.999969	
5393														0.086348	-0.010949	9.789804	0.793732	0.608238	-0.005971	-0.608217	0.793754	0.005132	0.007861	-0.000442	0.999969	
5394														0.061783	-0.010644	9.765546	0.793724	0.608248	-0.005941	-0.608227	0.793747	0.005161	0.007854	-0.000483	0.999969	
5395														0.086193	-0.011323	9.765391	0.793746	0.608221	-0.005921	-0.608199	0.793768	0.005177	0.007849	-0.000508	0.999969	
5396														0.087031	0.012711	9.814363	0.793735	0.608234	-0.005966	-0.608212	0.793758	0.005185	0.007890	-0.000487	0.999969	
5397														0.086566	-0.011327	9.765387	0.793729	0.608243	-0.005953	-0.608221	0.793751	0.005168	0.007869	-0.000481	0.999969	
5398														0.086566	-0.011253	9.765387	0.793718	0.608257	-0.005974	-0.608235	0.793740	0.005159	0.007879	-0.000461	0.999969	
5399														0.062304	-0.010947	9.765542	0.793711	0.608265	-0.005975	-0.608244	0.793734	0.005172	0.007889	-0.000471	0.999969	
5400														0.062611	0.013315	9.765690	0.793719	0.608255	-0.005952	-0.608234	0.793741	0.005167	0.007867	-0.000480	0.999969	
5401														0.062304	-0.010947	9.765542	0.793703	0.608276	-0.005992	-0.608255	0.793725	0.005132	0.007877	-0.000429	0.999969	
5402														0.062527	-0.010949	9.765541	0.793691	0.608292	-0.005987	-0.608270	0.793713	0.005180	0.007903	-0.000469	0.999969	
5403														0.062834	0.013239	9.765689	0.793694	0.608288	-0.005962	-0.608266	0.793716	0.005153	0.007867	-0.000463	0.999969	
5404														0.062532	-0.011322	9.789955	0.793690	0.608293	-0.005962	-0.608271	0.793712	0.005146	0.007862	-0.000458	0.999969	
5405														0.086864	-0.011406	9.765385	0.793693	0.608290	-0.005982	-0.608268	0.793715	0.005135	0.007872	-0.000437	0.999969	
5406														0.062683	-0.011175	9.789954	0.793709	0.608269	-0.005981	-0.608247	0.793731	0.005127	0.007866	-0.000431	0.999969	
5407														0.087014	-0.011335	9.765383	0.793711	0.608265	-0.005993	-0.608244	0.793734	0.005129	0.007876	-0.000426	0.999969	
5408														0.063069	0.013310	9.790101	0.793720	0.608254	-0.005989	-0.608233	0.793742	0.005100	0.007856	-0.000405	0.999969	
5409														0.062450	-0.010655	9.741127	0.793713	0.608263	-0.006010	-0.608242	0.793736	0.005089	0.007866	-0.000384	0.999969	
5410														0.086855	-0.035453	9.765235	0.793709	0.608268	-0.006021	-0.608247	0.793731	0.005091	0.007876	-0.000379	0.999969	
5411														0.062674	-0.010583	9.741126	0.793711	0.608265	-0.006020	-0.608244	0.793734	0.005083	0.007870	-0.000373	0.999969	
5412														0.063066	0.013606	9.765687	0.793703	0.608276	-0.005998	-0.608255	0.793725	0.005078	0.007850	-0.000383	0.999969	
5413														0.087166	-0.011118	9.765382	0.793714	0.608261	-0.006018	-0.608240	0.793737	0.005068	0.007860	-0.000362	0.999969	
5414														0.087398	0.013442	9.741116	0.793711	0.608266	-0.006007	-0.608245	0.793733	0.005072	0.007853	-0.000372	0.999969	
5415														0.063059	-0.011032	9.789952	0.793713	0.608262	-0.006019	-0.608241	0.793736	0.005073	0.007863	-0.000366	0.999969	
5416														0.087464	-0.011271	9.765379	0.793717	0.608258	-0.006020	-0.608236	0.793740	0.005087	0.007872	-0.000376	0.999969	
5417														0.063284	0.013453	9.741271	0.793720	0.608254	-0.006010	-0.608233	0.793742	0.005091	0.007867	-0.000386	0.999969	
5418														0.063356	-0.011483	9.789949	0.793720	0.608254	-0.006001	-0.608232	0.793743	0.005116	0.007875	-0.000411	0.999969	
5419														0.063506	0.013154	9.741270	0.793713	0.608262	-0.006021	-0.608241	0.793736	0.005106	0.007885	-0.000390	0.999969	
5420														0.087752	-0.011573	9.740962	0.793726	0.608246	-0.006024	-0.608225	0.793748	0.005120	0.007896	-0.000399	0.999969	
5421														0.063804	-0.011637	9.789946	0.793737	0.608231	-0.006036	-0.608209	0.793760	0.005121	0.007906	-0.000394	0.999969	
5422														0.063879	-0.011638	9.789946	0.793727	0.608245	-0.006035	-0.608223	0.793750	0.005122	0.007906	-0.000395	0.999969	
5423														0.088291	0.012760	9.741108	0.793729	0.608241	-0.006035	-0.608220	0.793752	0.005114	0.007901	-0.000389	0.999969	
5424														0.088058	-0.036516	9.814051	0.793735	0.608234	-0.006021	-0.608213	0.793758	0.005097	0.007879	-0.000383	0.999969	
5425														0.063341	-0.011485	9.741121	0.793738	0.608230	-0.005990	-0.608209	0.793760	0.005104	0.007859	-0.000408	0.999969	
5426														0.087995	0.012536	9.741111	0.793744	0.608222	-0.005999	-0.608201	0.793767	0.005084	0.007854	-0.000387	0.999969	
5427														0.063898	0.012624	9.790096	0.793728	0.608243	-0.005998	-0.608222	0.793751	0.005076	0.007848	-0.000381	0.999969	
5428														0.087612	-0.012027	9.765377	0.793730	0.608241	-0.005951	-0.608220	0.793752	0.005053	0.007797	-0.000391	0.999970	
5429														0.087942	0.011933	9.814356	0.793733	0.608238	-0.005929	-0.608217	0.793755	0.005048	0.007777	-0.000401	0.999970	
5430														0.086696	-0.036734	9.765232	0.793713	0.608264	-0.005882	-0.608243	0.793735	0.005025	0.007725	-0.000411	0.999970	
5431														0.086720	-0.012621	9.789799	0.793707	0.608273	-0.005836	-0.608252	0.793728	0.005001	0.007674	-0.000420	0.999970	
5432														0.061724	0.012268	9.741283	0.793705	0.608275	-0.005765	-0.608255	0.793726	0.004959	0.007592	-0.000429	0.999971	
5433														0.061037	-0.012595	9.789962	0.793699	0.608284	-0.005706	-0.608264	0.793720	0.004926	0.007526	-0.000439	0.999972	
5434														0.060683	0.011899	9.765704	0.793704	0.608277	-0.005669	-0.608258	0.793724	0.004890	0.007474	-0.000433	0.999972	
5435														0.084255	-0.012824	9.740991	0.793707	0.608274	-0.005625	-0.608255	0.793727	0.004887	0.007438	-0.000457	0.999972	
5436														0.133219	-0.014375	9.838349	0.793708	0.608273	-0.005558	-0.608254	0.793728	0.004866	0.007371	-0.000482	0.999973	
5437														0.131960	-0.013901	9.740705	0.793693	0.608294	-0.005497	-0.608275	0.793712	0.004812	0.007290	-0.000476	0.999973	
5438														0.057913	-0.012786	9.716739	0.793689	0.608300	-0.005448	-0.608281	0.793707	0.004766	0.007223	-0.000469	0.999974	
5439														0.033328	-0.013157	9.814540	0.793701	0.608284	-0.005365	-0.608266	0.793719	0.004714	0.007126	-0.000478	0.999974	
5440														0.056430	-0.012925	9.716747	0.793696	0.608292	-0.005317	-0.608274	0.793713	0.004669	0.007060	-0.000472	0.999975	
5441														0.032235	0.011194	9.790284	0.793699	0.608288	-0.005261	-0.608271	0.793716	0.004657	0.007009	-0.000497	0.999975	
5442														-0.017558	-0.012339	9.741585	0.793701	0.608285	-0.005246	-0.608268	0.793719	0.004619	0.006973	-0.000476	0.999976	
5443														0.006889	0.011984	9.717186	0.793685	0.608306	-0.005245	-0.608288	0.793703	0.004612	0.006968	-0.000470	0.999976	
5444														0.056381	0.035220	9.765887	0.793679	0.608315	-0.005228	-0.608297	0.793696	0.004649	0.006978	-0.000510	0.999976	
5445														0.105278	0.034355	9.765607	0.793690	0.608299	-0.005227	-0.608282	0.793707	0.004642	0.006973	-0.000504	0.999976	
5446														0.105096	0.009786	9.789866	0.793705	0.608281	-0.005227	-0.608263	0.793722	0.004640	0.006972	-0.000504	0.999976	
5447														0.080408	0.010345	9.741180	0.793707	0.608278	-0.005217	-0.608260	0.793724	0.004645	0.006966	-0.000513	0.999976	
5448														0.055490	-0.038388	9.765422	0.793700	0.608288	-0.005217	-0.608270	0.793717	0.004645	0.006966	-0.000514	0.999976	
5449														0.080149	-0.014373	9.765438	0.793712	0.608272	-0.005195	-0.608255	0.793728	0.004640	0.006945	-0.000523	0.999976	
5450														0.055663	-0.014051	9.765578	0.793694	0.608295	-0.005203	-0.608278	0.793711	0.004621	0.006940	-0.000503	0.999976	
5451														0.055451	-0.014042	9.741165	0.793688	0.608304	-0.005162	-0.608286	0.793704	0.004640	0.006919	-0.000543	0.999976	
5452														0.055201	-0.038677	9.741008	0.793685	0.608307	-0.005185	-0.608289	0.793702	0.004651	0.006944	-0.000538	0.999976	
5453														0.080694	0.009663	9.765592	0.793687	0.608304	-0.005208	-0.608286	0.793704	0.004662	0.006969	-0.000532	0.999976	
5454														0.081056	0.009428	9.790003	0.793678	0.608315	-0.005210	-0.608298	0.793695	0.004675	0.006979	-0.000542	0.999975	
5455														0.080916	0.009363	9.765590	0.793672	0.608324	-0.005178	-0.608306	0.793689	0.004682	0.006958	-0.000566	0.999976	
5456														0.081303	0.033391	9.790162	0.793683	0.608309	-0.005168	-0.608292	0.793700	0.004687	0.006953	-0.000576	0.999976	
5457														0.056429	0.009461	9.765732	0.793667	0.608330	-0.005176	-0.608313	0.793684	0.004667	0.006947	-0.000555	0.999976	
5458														0.056094	-0.015258	9.789988	0.793660	0.608340	-0.005123	-0.608323	0.793676	0.004676	0.006911	-0.000595	0.999976	
5459														0.031341	-0.014456	9.716889	0.793653	0.608349	-0.005186	-0.608332	0.793669	0.004661	0.006951	-0.000544	0.999976	
5460														0.056218	-0.039597	9.789828	0.793655	0.608346	-0.005190	-0.608328	0.793672	0.004695	0.006976	-0.000569	0.999976	
5461														0.080823	-0.015266	9.741017	0.793657	0.608343	-0.005199	-0.608325	0.793674	0.004676	0.006970	-0.000548	0.999976	
5462														0.080853	-0.039998	9.789684	0.793654	0.608347	-0.005201	-0.608329	0.793671	0.004689	0.006980	-0.000558	0.999975	
5463														0.105989	0.008424	9.789857	0.793657	0.608344	-0.005200	-0.608326	0.793674	0.004682	0.006975	-0.000553	0.999976	
5464														0.105450	-0.015828	9.765287	0.793664	0.608334	-0.005188	-0.608316	0.793681	0.004664	0.006955	-0.000546	0.999976	
5465														0.081344	0.008590	9.814416	0.793649	0.608355	-0.005151	-0.608337	0.793665	0.004629	0.006904	-0.000540	0.999976	
5466														0.056093	-0.015558	9.789988	0.793643	0.608362	-0.005097	-0.608344	0.793660	0.004638	0.006867	-0.000580	0.999976	
5467														0.031580	0.009277	9.741461	0.793646	0.608358	-0.005096	-0.608341	0.793662	0.004630	0.006862	-0.000574	0.999976	
5468														0.007031	0.009763	9.717188	0.793651	0.608352	-0.005095	-0.608335	0.793667	0.004622	0.006856	-0.000569	0.999976	
5469														0.031329	-0.015209	9.741302	0.793663	0.608337	-0.005097	-0.608319	0.793679	0.004636	0.006866	-0.000579	0.999976	
5470														0.056567	0.008402	9.790146	0.793673	0.608323	-0.005111	-0.608306	0.793689	0.004659	0.006890	-0.000589	0.999976	
5471														0.105475	0.007760	9.765449	0.793666	0.608332	-0.005113	-0.608314	0.793682	0.004672	0.006900	-0.000598	0.999976	
5472														0.081138	0.008011	9.765590	0.793659	0.608342	-0.005112	-0.608324	0.793675	0.004665	0.006895	-0.000593	0.999976	
5473														0.081024	-0.016638	9.789842	0.793652	0.608351	-0.005114	-0.608333	0.793668	0.004679	0.006905	-0.000602	0.999976	
5474														0.080884	-0.016551	9.765429	0.793649	0.608355	-0.005101	-0.608337	0.793665	0.004662	0.006885	-0.000597	0.999976	
5475														0.081138	0.007860	9.765590	0.793651	0.608351	-0.005100	-0.608334	0.793668	0.004654	0.006879	-0.000591	0.999976	
5476														0.056537	-0.016386	9.789984	0.793626	0.608385	-0.005100	-0.608367	0.793642	0.004647	0.006874	-0.000586	0.999976	
5477														0.031847	-0.015808	9.741299	0.793638	0.608369	-0.005089	-0.608352	0.793654	0.004651	0.006869	-0.000595	0.999976	
5478														0.032315	0.008292	9.765873	0.793646	0.608359	-0.005079	-0.608342	0.793662	0.004655	0.006863	-0.000605	0.999976	
5479														0.080947	-0.017089	9.789842	0.793639	0.608368	-0.005069	-0.608350	0.793655	0.004659	0.006857	-0.000614	0.999976	
5480														0.056799	0.007664	9.765731	0.793634	0.608374	-0.005070	-0.608356	0.793650	0.004673	0.006867	-0.000624	0.999976	
5481														0.080881	-0.017075	9.765428	0.793619	0.608395	-0.005067	-0.608377	0.793634	0.004644	0.006846	-0.000603	0.999976	
5482														0.081134	0.007188	9.765590	0.793601	0.608417	-0.005037	-0.608400	0.793617	0.004672	0.006840	-0.000643	0.999976	
5483														0.032246	0.008008	9.741460	0.793594	0.608426	-0.005076	-0.608408	0.793610	0.004638	0.006850	-0.000592	0.999976	
5484														0.032613	0.008364	9.765872	0.793573	0.608453	-0.005137	-0.608436	0.793589	0.004601	0.006876	-0.000526	0.999976	
5485														-0.016022	-0.014813	9.790410	0.793491	0.608559	-0.005228	-0.608542	0.793509	0.004549	0.006916	-0.000428	0.999976	
5486														-1.463030	-0.508567	9.722316	0.792316	0.610089	-0.005222	-0.610072	0.792333	0.004487	0.006875	-0.000369	0.999976	
5487														-2.357145	0.391321	9.806662	0.786182	0.617974	-0.005204	-0.617957	0.786199	0.004523	0.006886	-0.000340	0.999976	
5488														-1.143295	0.883466	9.754039	0.778407	0.627739	-0.005215	-0.627722	0.778424	0.004531	0.006904	-0.000253	0.999976	
5489														-0.173322	0.739831	9.844963	0.771231	0.636532	-0.005456	-0.636516	0.771250	0.004506	0.007076	-0.000003	0.999975	
5490														1.032548	0.110943	9.760333	0.766207	0.642573	-0.005220	-0.642557	0.766224	0.004573	0.006938	-0.000149	0.999976	
5491														1.688498	-0.545747	9.825442	0.763111	0.646245	-0.005340	-0.646230	0.763130	0.004465	0.006961	0.000044	0.999976	
5492														1.912894	-0.603811	9.774784	0.761624	0.647996	-0.005420	-0.647980	0.761644	0.004489	0.007037	0.000093	0.999975	
5493														1.241365	-0.259955	9.756627	0.761400	0.648260	-0.005375	-0.648245	0.761419	0.004486	0.007001	0.000069	0.999975	
5494														-0.012984	-0.038694	9.790258	0.761398	0.648263	-0.005355	-0.648247	0.761417	0.004479	0.006981	0.000061	0.999976	
5495														0.058216	0.012934	9.765718	0.761391	0.648271	-0.005366	-0.648256	0.761410	0.004481	0.006991	0.000067	0.999976	
5496														0.059284	-0.011459	9.765560	0.761391	0.648270	-0.005377	-0.648255	0.761410	0.004481	0.006999	0.000074	0.999976	
5497														0.032970	0.036640	9.741606	0.761394	0.648267	-0.005387	-0.648252	0.761413	0.004462	0.006994	0.000095	0.999976	
5498														0.058665	0.012938	9.790129	0.761414	0.648244	-0.005396	-0.648228	0.761433	0.004460	0.007000	0.000102	0.999975	
5499														0.083286	0.013861	9.789979	0.761416	0.648240	-0.005419	-0.648225	0.761436	0.004471	0.007025	0.000108	0.999975	
5500														0.083434	0.013867	9.765564	0.761429	0.648226	-0.005426	-0.648210	0.761448	0.004505	0.007051	0.000087	0.999975	
5501														0.083592	0.013566	9.789977	0.761432	0.648222	-0.005401	-0.648207	0.761451	0.004477	0.007015	0.000092	0.999975	
5502														0.036024	-0.036687	9.716722	0.761433	0.648221	-0.005391	-0.648206	0.761452	0.004480	0.007009	0.000084	0.999975	
5503														0.084363	-0.010983	9.789822	0.761436	0.648218	-0.005391	-0.648203	0.761455	0.004472	0.007004	0.000089	0.999975	
5504														0.036408	-0.037063	9.765548	0.761460	0.648189	-0.005402	-0.648174	0.761479	0.004470	0.007011	0.000098	0.999975	
5505														0.035410	-0.012439	9.741292	0.761453	0.648198	-0.005412	-0.648182	0.761472	0.004450	0.007005	0.000119	0.999975	
5506														0.034877	0.011731	9.790274	0.761484	0.648161	-0.005421	-0.648146	0.761503	0.004450	0.007013	0.000125	0.999975	
5507														-2.411262	-1.181278	9.725298	0.760208	0.649656	-0.005500	-0.649641	0.760228	0.004456	0.007076	0.000185	0.999975	
5508														-4.722238	-0.727246	9.816499	0.756428	0.654054	-0.005521	-0.654038	0.756448	0.004487	0.007111	0.000217	0.999975	
5509														-4.624135	-1.186273	9.716030	0.753457	0.657473	-0.005667	-0.657457	0.753478	0.004520	0.007242	0.000320	0.999974	
5510														-3.424838	-1.516247	10.097307	0.749029	0.662512	-0.005792	-0.662499	0.749051	0.004246	0.007151	0.000657	0.999974	
5511														17.387366	-0.040411	11.112692	0.749431	0.662074	0.003330	-0.662082	0.749428	0.002286	-0.000982	-0.003918	0.999992	
5512														3.875802	5.220873	10.769021	0.751017	0.660274	0.003487	-0.660208	0.751000	-0.011179	-0.010000	0.006093	0.999931	
5513														3.196429	2.238780	11.071293	0.757252	0.653119	0.002039	-0.652837	0.757010	-0.027211	-0.019315	0.019274	0.999628	
5514														-1.486177	0.690474	16.343177	0.760322	0.649512	-0.006610	-0.649174	0.759504	-0.041553	-0.021968	0.035885	0.999114	
5515														-0.911620	1.570058	17.199199	0.757092	0.653020	-0.019378	-0.653044	0.755611	-0.050846	-0.018561	0.051149	0.998519	
5516														-0.221628	1.899534	16.767119	0.750448	0.659841	-0.037904	-0.660860	0.748306	-0.057471	-0.009558	0.068178	0.997627	
5517														0.470284	1.967900	16.309496	0.745902	0.663323	-0.060272	-0.666053	0.743086	-0.064775	0.001821	0.088460	0.996078	
5518														-0.863404	1.044774	15.455723	0.745045	0.661664	-0.084310	-0.666870	0.741535	-0.073549	0.013854	0.111021	0.993721	
5519														-2.422623	0.950542	14.171233	0.747304	0.655635	-0.108070	-0.663981	0.743113	-0.083135	0.025802	0.133884	0.990661	
5520														-2.136146	1.269739	12.515887	0.750586	0.647833	-0.130127	-0.659803	0.745472	-0.094507	0.035781	0.156794	0.986983	
5521														-0.661826	0.955775	10.837991	0.754271	0.639233	-0.149854	-0.655145	0.747769	-0.107825	0.043131	0.179505	0.982811	
5522														0.438873	0.701716	9.670942	0.757924	0.630175	-0.168612	-0.650496	0.749531	-0.122712	0.049050	0.202687	0.978014	
5523														1.250912	0.845098	8.402230	0.761517	0.620612	-0.186904	-0.645799	0.751043	-0.137401	0.055100	0.225335	0.972722	
5524														1.510443	0.402613	6.952509	0.764632	0.611252	-0.204228	-0.641580	0.751937	-0.151544	0.060935	0.246903	0.967122	
5525														1.300460	0.516932	5.871946	0.766557	0.603145	-0.220470	-0.638728	0.751631	-0.164552	0.066464	0.266959	0.961413	
5526														0.369077	1.079836	5.109988	0.766276	0.597529	-0.236177	-0.638394	0.749611	-0.174750	0.072622	0.284680	0.955868	
5527														-0.294720	1.309697	4.615184	0.763050	0.595376	-0.251561	-0.641346	0.745739	-0.180410	0.080187	0.299000	0.950878	
5528														-0.275491	1.325447	4.384465	0.758177	0.595594	-0.265395	-0.646035	0.741298	-0.181979	0.088351	0.309427	0.946810	
5529														-0.288463	1.438734	4.381074	0.754155	0.595943	-0.275868	-0.649677	0.738328	-0.181086	0.095764	0.315792	0.943983	
5530														-0.854570	2.101634	4.149357	0.751500	0.596238	-0.282398	-0.651871	0.736966	-0.178734	0.101550	0.318405	0.942500	
5531														-1.134010	2.141626	3.681390	0.749671	0.597320	-0.284960	-0.653388	0.736484	-0.175145	0.105251	0.317490	0.942402	
5532														-1.264798	1.518071	2.846913	0.748560	0.599563	-0.283164	-0.654562	0.736366	-0.171214	0.105859	0.313512	0.943665	
5533														-1.447152	0.922155	1.873502	0.748234	0.603693	-0.275138	-0.655512	0.736626	-0.166391	0.102225	0.304856	0.946896	
5534														-0.880895	1.031428	0.441697	0.750228	0.608361	-0.258948	-0.654508	0.738827	-0.160481	0.093687	0.289881	0.952466	
5535														-0.963852	-0.470033	-0.697782	0.755090	0.613237	-0.231906	-0.651035	0.743101	-0.154775	0.077416	0.267848	0.960346	
5536														-1.599917	-2.745057	-1.718769	0.759593	0.621336	-0.192252	-0.648470	0.746244	-0.150352	0.050047	0.238876	0.969759	
5537														-1.535051	-3.462274	-0.784621	0.759659	0.634162	-0.144067	-0.650185	0.745155	-0.148334	0.013285	0.206354	0.978387	
5538														-1.200676	-1.792194	5.286929	0.753970	0.650351	-0.092590	-0.656512	0.741098	-0.140586	-0.022812	0.166784	0.985729	
5539														0.167884	-2.451701	7.033936	0.744070	0.666570	-0.045212	-0.666282	0.735349	-0.123815	-0.049285	0.122251	0.991275	
5540														1.763778	-0.210268	11.788654	0.736877	0.675809	-0.017190	-0.673516	0.731712	-0.104759	-0.058219	0.088772	0.994349	
5541														2.781755	3.551739	18.689391	0.737412	0.675335	-0.012098	-0.673957	0.734484	-0.079469	-0.044782	0.066755	0.996764	
5542														3.590304	6.521669	24.832690	0.744170	0.667569	-0.023727	-0.667777	0.742567	-0.051653	-0.016863	0.054283	0.998383	
5543														3.460257	8.654665	27.352884	0.754479	0.654899	-0.043229	-0.656160	0.754126	-0.027355	0.014685	0.049003	0.998691	
5544														1.919262	7.912961	25.758977	0.764084	0.642079	-0.062529	-0.644002	0.764868	-0.015449	0.037907	0.052073	0.997924	
5545														0.389808	4.240407	22.469137	0.769497	0.634001	-0.076927	-0.636997	0.770579	-0.021054	0.045930	0.065203	0.996814	
5546														-0.374161	1.242020	19.674997	0.771690	0.629861	-0.088150	-0.634527	0.771898	-0.039359	0.043252	0.086307	0.995329	
5547														0.038006	0.679436	16.547757	0.773122	0.626576	-0.098413	-0.633165	0.771545	-0.061810	0.037201	0.110098	0.993224	
5548														0.795375	0.301953	12.898525	0.776549	0.620621	-0.108630	-0.629266	0.772593	-0.084404	0.031544	0.133901	0.990493	
5549														1.114873	0.087361	10.809064	0.782057	0.611027	-0.122609	-0.622507	0.775235	-0.107218	0.029538	0.160175	0.986647	
5550														1.463342	0.638798	10.722102	0.788028	0.598643	-0.143662	-0.614611	0.778475	-0.127399	0.035571	0.188691	0.981392	
5551														1.757748	0.956383	10.050783	0.792104	0.585925	-0.171067	-0.608324	0.780811	-0.142395	0.050138	0.216855	0.974915	
5552														0.924296	0.761857	9.007787	0.790783	0.576995	-0.204301	-0.608251	0.778108	-0.156779	0.068508	0.248244	0.966272	
5553														1.325232	1.177514	9.916623	0.785292	0.572067	-0.236761	-0.612691	0.773052	-0.164317	0.089028	0.274098	0.957572	
5554														1.126535	1.223676	8.163389	0.778336	0.569229	-0.264900	-0.618311	0.768208	-0.165977	0.109020	0.292976	0.949884	
5555														0.177866	1.929459	6.869836	0.771586	0.566453	-0.289458	-0.623524	0.763587	-0.167787	0.125982	0.309946	0.942370	
5556														-0.268023	2.483296	6.792222	0.766497	0.562572	-0.309830	-0.626782	0.760470	-0.169792	0.140096	0.324341	0.935508	
5557														-0.348188	2.314576	6.460624	0.764609	0.556225	-0.325556	-0.626269	0.760504	-0.171522	0.152182	0.335033	0.929835	
5558														-0.701562	2.683993	5.983860	0.765728	0.547754	-0.337085	-0.622424	0.763130	-0.173843	0.162016	0.342927	0.925285	
5559														-0.567576	2.378101	5.477401	0.768685	0.539478	-0.343636	-0.617055	0.766913	-0.176317	0.168420	0.347575	0.922402	
5560														-0.142702	1.509694	4.380815	0.772932	0.532447	-0.345074	-0.610654	0.771925	-0.176729	0.172273	0.347321	0.921786	
5561														-0.232219	0.751548	2.830235	0.778256	0.526738	-0.341854	-0.603007	0.778796	-0.172798	0.175216	0.340621	0.923730	
5562														-1.489162	0.098728	1.166044	0.782684	0.525759	-0.333142	-0.597047	0.785445	-0.163126	0.175899	0.326578	0.928658	
5563														-1.951673	-1.053739	-0.259359	0.784719	0.534138	-0.314504	-0.596542	0.788612	-0.149091	0.168387	0.304610	0.937475	
5564														-1.317147	-2.275119	-0.930563	0.784335	0.552327	-0.282408	-0.602454	0.786736	-0.134522	0.147881	0.275648	0.949815	
5565														-0.137443	-2.467773	-0.832981	0.782735	0.574816	-0.238564	-0.611576	0.781458	-0.123686	0.115331	0.242713	0.963218	
5566														0.907151	-1.688989	0.393293	0.779838	0.596855	-0.188725	-0.621336	0.774696	-0.117421	0.076121	0.208831	0.974985	
5567														0.927847	-1.991996	3.485264	0.775448	0.616041	-0.138469	-0.630367	0.767927	-0.113691	0.036295	0.175448	0.983819	
5568														0.245005	-1.341761	8.015087	0.771103	0.629503	-0.095525	-0.636701	0.763146	-0.110544	0.003312	0.146062	0.989270	
5569														-1.174994	1.480111	13.636987	0.768867	0.635905	-0.066843	-0.639240	0.762051	-0.103204	-0.014690	0.122079	0.992412	
5570														-0.632070	4.205959	19.459164	0.770626	0.635007	-0.053877	-0.637141	0.765869	-0.086582	-0.013717	0.101050	0.994787	
5571														1.489825	5.948851	24.353341	0.777323	0.626961	-0.051863	-0.629098	0.774954	-0.060679	0.002148	0.079794	0.996809	
5572														3.311011	7.805850	25.853430	0.788052	0.612764	-0.059122	-0.615003	0.787898	-0.031444	0.027315	0.061140	0.997755	
5573														3.833258	8.057539	24.720754	0.800154	0.594737	-0.077729	-0.597346	0.801866	-0.013744	0.054154	0.057429	0.996880	
5574														2.800775	6.595324	23.281025	0.810287	0.577013	-0.102421	-0.581272	0.813567	-0.015218	0.074546	0.071866	0.994625	
5575														1.131591	3.561683	20.878849	0.816464	0.562868	-0.128705	-0.570768	0.820463	-0.032625	0.087235	0.100098	0.991146	
5576														0.686369	0.791585	17.884454	0.817807	0.553663	-0.156999	-0.567549	0.821097	-0.060725	0.095290	0.138766	0.985730	
5577														0.789606	-0.496542	14.576865	0.814094	0.549970	-0.186506	-0.572010	0.814843	-0.093997	0.100278	0.183206	0.977947	
5578														1.483439	-1.111957	11.496370	0.805668	0.552211	-0.214387	-0.583660	0.801839	-0.128046	0.101195	0.228292	0.968319	
5579														2.001014	-1.682338	8.996870	0.794430	0.558934	-0.237643	-0.599573	0.784164	-0.159997	0.096924	0.269591	0.958085	
5580														1.972882	-0.968492	7.069415	0.781582	0.568629	-0.256496	-0.617293	0.764267	-0.186670	0.089885	0.304232	0.948348	
5581														1.574253	0.465606	5.663098	0.767571	0.579615	-0.273643	-0.635433	0.744078	-0.206331	0.084020	0.332255	0.939440	
5582														1.514516	1.302712	4.603655	0.753647	0.589286	-0.291132	-0.651981	0.726365	-0.217520	0.083286	0.353745	0.931626	
5583														1.048045	2.052749	3.971241	0.742182	0.593930	-0.310504	-0.664081	0.714173	-0.221253	0.090345	0.370410	0.924464	
5584														0.051946	3.051780	4.135445	0.733745	0.593906	-0.329990	-0.671636	0.707368	-0.220308	0.102582	0.383283	0.917917	
5585														-0.790756	3.215637	4.237200	0.729142	0.590303	-0.346257	-0.674469	0.705556	-0.217445	0.115946	0.392088	0.912592	
5586														-1.538688	3.347597	3.915038	0.728883	0.584064	-0.357210	-0.672583	0.708340	-0.214210	0.127914	0.396388	0.909129	
5587														-1.730603	3.304225	2.910752	0.732590	0.576549	-0.361806	-0.666720	0.714872	-0.210814	0.137100	0.395664	0.908105	
5588														-1.366776	2.504743	0.968744	0.740792	0.568944	-0.357113	-0.656866	0.724780	-0.207894	0.140549	0.388582	0.910632	
5589														-1.248074	0.926542	-0.486116	0.752567	0.562751	-0.341986	-0.644565	0.735830	-0.207581	0.134828	0.376651	0.916491	
5590														-1.663727	-0.763063	-0.954578	0.765895	0.560756	-0.314575	-0.632220	0.745879	-0.209674	0.117059	0.359468	0.925786	
5591														-3.017598	-2.074914	-1.003114	0.776239	0.567082	-0.275448	-0.624444	0.751700	-0.212171	0.086736	0.336697	0.937610	
5592														-2.893376	-3.133634	-0.528390	0.779611	0.583148	-0.228353	-0.624494	0.751276	-0.213522	0.047041	0.309069	0.949876	
5593														-1.427720	-3.552993	1.203736	0.777185	0.603675	-0.177653	-0.629258	0.747476	-0.212872	0.004286	0.277230	0.960794	
5594														-1.150588	-2.448259	4.488340	0.772176	0.622178	-0.128988	-0.634450	0.743818	-0.210257	-0.034874	0.244192	0.969100	
5595														-1.904146	0.247417	9.350143	0.767283	0.635104	-0.088993	-0.638134	0.742309	-0.204359	-0.063729	0.213591	0.974842	
5596														-2.555507	3.491910	14.744127	0.765370	0.640661	-0.061334	-0.638939	0.744943	-0.191877	-0.077238	0.186045	0.979501	
5597														-1.865211	6.218959	20.183936	0.768984	0.637492	-0.047620	-0.635118	0.753393	-0.170364	-0.072729	0.161252	0.984230	
5598														0.563917	7.559067	24.527153	0.778636	0.625786	-0.046020	-0.625383	0.767965	-0.138298	-0.051203	0.136464	0.989321	
5599														3.455471	8.616262	25.756452	0.793868	0.605422	-0.056910	-0.607857	0.787482	-0.101892	-0.016872	0.115482	0.993166	
5600														5.572402	9.003809	24.886619	0.810537	0.580044	-0.081110	-0.585322	0.807116	-0.077207	0.020681	0.110054	0.993710	
5601														5.111017	7.489617	23.569501	0.823896	0.555687	-0.111388	-0.564463	0.822183	-0.073466	0.050758	0.123403	0.991058	
5602														3.014170	4.312226	21.280838	0.830817	0.538380	-0.141031	-0.552244	0.828932	-0.088870	0.069059	0.151718	0.986008	
5603														2.033502	1.219341	18.384882	0.831585	0.529342	-0.168118	-0.550042	0.826865	-0.117252	0.076945	0.189977	0.978769	
5604														1.771073	-0.650971	15.588617	0.828005	0.526611	-0.192586	-0.555463	0.817269	-0.153405	0.076610	0.233994	0.969215	
5605														1.516463	-1.807561	12.767219	0.821680	0.528433	-0.213543	-0.565604	0.802197	-0.191241	0.070246	0.277920	0.958032	
5606														1.208821	-1.846257	10.329608	0.813469	0.533699	-0.231158	-0.578435	0.783850	-0.225815	0.060676	0.317403	0.946348	
5607														1.113008	-0.868416	8.389194	0.803482	0.541066	-0.248324	-0.592964	0.764491	-0.252878	0.053018	0.350431	0.935087	
5608														1.103199	0.143073	6.715879	0.791648	0.549928	-0.266220	-0.608915	0.745913	-0.269882	0.050161	0.375757	0.925360	
5609														0.827783	1.185838	5.148551	0.778328	0.559228	-0.285428	-0.625639	0.728984	-0.277772	0.052735	0.394773	0.917264	
5610														0.215683	2.032892	4.276193	0.764766	0.567019	-0.305977	-0.641491	0.714441	-0.279398	0.060179	0.409956	0.910118	
5611														-0.630978	2.708427	3.897428	0.752646	0.571825	-0.326404	-0.654578	0.703349	-0.277179	0.071078	0.422274	0.903677	
5612														-1.252306	2.965772	3.912986	0.743358	0.573625	-0.344053	-0.663714	0.696435	-0.272878	0.083081	0.431199	0.898424	
5613														-1.454141	2.801903	3.834144	0.738625	0.571924	-0.356841	-0.667374	0.695066	-0.267386	0.095103	0.435645	0.895081	
5614														-1.826369	3.043554	3.185084	0.739185	0.566848	-0.363715	-0.664986	0.699873	-0.260714	0.106769	0.434581	0.894282	
5615														-1.741046	2.949264	1.944963	0.743384	0.561748	-0.363068	-0.658997	0.708019	-0.253835	0.114468	0.427958	0.896520	
5616														-1.291120	1.702503	0.650718	0.750803	0.557863	-0.353672	-0.650504	0.717407	-0.249343	0.114628	0.417273	0.901523	
5617														-1.913114	0.248213	0.012999	0.760362	0.557298	-0.333570	-0.641097	0.726327	-0.247879	0.104138	0.402329	0.909553	
5618														-2.680060	-1.578731	0.136631	0.768474	0.564127	-0.302007	-0.634707	0.731914	-0.247889	0.081202	0.382182	0.920512	
5619														-3.086670	-2.733601	0.543977	0.772254	0.579701	-0.259942	-0.633572	0.732997	-0.247592	0.047007	0.355896	0.933343	
5620														-1.937693	-2.380658	1.364858	0.770799	0.600946	-0.211501	-0.637045	0.730449	-0.246208	0.006534	0.324513	0.945859	
5621														-1.587461	-1.686358	3.943405	0.766340	0.621475	-0.162761	-0.641542	0.726958	-0.244858	-0.033853	0.292063	0.955800	
5622														-2.603601	0.361991	8.473865	0.760499	0.637876	-0.121473	-0.645889	0.723846	-0.242640	-0.066846	0.262985	0.962481	
5623														-3.360492	3.500416	13.978097	0.755651	0.648638	-0.090887	-0.649215	0.723396	-0.234987	-0.086675	0.236573	0.967740	
5624														-2.075465	5.325048	18.940839	0.754336	0.652648	-0.070910	-0.650318	0.728097	-0.216706	-0.089803	0.209583	0.973658	
5625														0.842158	6.317918	22.956963	0.758404	0.649019	-0.059975	-0.647267	0.739138	-0.186333	-0.076603	0.180136	0.980654	
5626														4.297428	8.213494	24.765771	0.768623	0.636840	-0.060438	-0.637789	0.755597	-0.149327	-0.049431	0.153323	0.986939	
5627														6.895630	8.967249	24.286489	0.784121	0.615855	-0.076659	-0.620479	0.775434	-0.117086	-0.012664	0.139375	0.990159	
5628														5.988718	6.450837	22.507573	0.798574	0.593132	-0.102344	-0.601475	0.792760	-0.098795	0.022536	0.140452	0.989831	
5629														3.237717	3.098540	19.432190	0.806501	0.576624	-0.130618	-0.589308	0.801824	-0.098968	0.047666	0.156792	0.986481	
5630														1.175710	1.271337	16.431271	0.807474	0.568262	-0.158316	-0.586701	0.801555	-0.115287	0.061386	0.185975	0.980635	
5631														0.398843	0.811952	13.960276	0.803586	0.566666	-0.182041	-0.591748	0.793494	-0.142133	0.063906	0.221938	0.972964	
5632														0.078025	0.737834	11.642761	0.797423	0.568990	-0.200915	-0.600619	0.780478	-0.173525	0.058076	0.259046	0.964117	
5633														-0.146572	1.031452	9.318165	0.789278	0.574429	-0.216962	-0.612159	0.763721	-0.204921	0.047986	0.294555	0.954429	
5634														-0.071522	1.372265	7.415387	0.778753	0.582520	-0.232840	-0.626212	0.743992	-0.233097	0.037448	0.327332	0.944167	
5635														0.035900	1.721275	6.361691	0.766575	0.591200	-0.250690	-0.641467	0.723056	-0.256341	0.029714	0.357314	0.933511	
5636														-0.067916	2.246974	5.837102	0.753174	0.599748	-0.270241	-0.657327	0.702087	-0.273852	0.025491	0.383895	0.923025	
5637														-0.436128	2.707668	5.310953	0.739305	0.607749	-0.289948	-0.672929	0.682423	-0.285423	0.024401	0.406129	0.913490	
5638														-0.688382	2.777033	4.743476	0.726393	0.614173	-0.308457	-0.686777	0.665812	-0.291602	0.026281	0.423659	0.905441	
5639														-0.851919	2.472825	4.290685	0.716505	0.617530	-0.324465	-0.696900	0.654235	-0.293782	0.030856	0.436616	0.899119	
5640														-1.246489	2.446747	3.885497	0.711279	0.617209	-0.336355	-0.701929	0.648951	-0.293527	0.037111	0.444877	0.894822	
5641														-1.081645	2.186125	2.923797	0.711205	0.614242	-0.341897	-0.701647	0.650226	-0.291372	0.043338	0.447116	0.893425	
5642														-0.425786	1.351059	1.320488	0.717733	0.608316	-0.338837	-0.694674	0.658961	-0.288440	0.047818	0.442405	0.895540	
5643														-0.981660	0.914273	0.076873	0.729797	0.600424	-0.326935	-0.681948	0.673192	-0.285938	0.048406	0.431629	0.900751	
5644														-3.031644	-0.401678	0.176342	0.742767	0.595409	-0.306242	-0.668226	0.687956	-0.283178	0.042074	0.414975	0.908859	
5645														-4.824362	-2.874907	0.621481	0.751812	0.599632	-0.274262	-0.658892	0.699142	-0.277600	0.025290	0.389412	0.920717	
5646														-4.598299	-3.070107	0.739625	0.754663	0.614101	-0.231007	-0.656105	0.704679	-0.270097	-0.003081	0.355397	0.934710	
5647														-2.843168	-1.897212	1.944798	0.751900	0.634045	-0.180648	-0.658143	0.705810	-0.262070	-0.038661	0.315942	0.947990	
5648														-1.861908	-1.101211	4.437260	0.745548	0.653951	-0.128475	-0.662177	0.705073	-0.253759	-0.075362	0.274263	0.958697	
5649														-2.613928	0.269068	8.370551	0.738280	0.669357	-0.083089	-0.666256	0.704514	-0.244465	-0.105097	0.235842	0.966092	
5650														-3.916390	2.881171	13.428598	0.732875	0.678478	-0.050618	-0.669458	0.705862	-0.231482	-0.121326	0.203534	0.971521	
5651														-3.233076	4.758941	18.601850	0.730829	0.681818	-0.031830	-0.671718	0.710158	-0.210880	-0.121177	0.175498	0.976994	
5652														-0.780502	6.356366	22.491393	0.733833	0.678966	-0.022235	-0.670880	0.719170	-0.180873	-0.106816	0.147647	0.983255	
5653														2.090211	8.407520	23.809465	0.744219	0.667578	-0.021850	-0.663043	0.734419	-0.144923	-0.080700	0.122342	0.989202	
5654														4.853036	10.108701	23.518393	0.761282	0.647486	-0.034820	-0.646680	0.754210	-0.113896	-0.047484	0.109224	0.992882	
5655														5.591405	9.508409	23.491068	0.779124	0.624051	-0.059383	-0.626674	0.773010	-0.098670	-0.015672	0.114090	0.993347	
5656														4.878116	7.109365	23.151394	0.791481	0.604863	-0.087747	-0.611144	0.785064	-0.100885	0.007866	0.133474	0.991021	
5657														3.633651	3.924297	20.843402	0.797029	0.592729	-0.115830	-0.603530	0.788771	-0.116583	0.022261	0.162827	0.986403	
5658														2.860802	0.944367	17.144822	0.797208	0.586472	-0.143215	-0.603000	0.785010	-0.141956	0.029172	0.199527	0.979458	
5659														1.799863	-0.756118	13.410223	0.793457	0.584827	-0.168535	-0.607923	0.774861	-0.173263	0.029262	0.239933	0.970348	
5660														0.913064	-1.594282	9.858335	0.786936	0.586647	-0.191252	-0.616535	0.760052	-0.205441	0.024840	0.279582	0.959800	
5661														0.233108	-1.882064	6.742509	0.778675	0.590667	-0.211607	-0.627142	0.742889	-0.234111	0.018919	0.315004	0.948902	
5662														-0.423802	-1.165947	4.767318	0.768416	0.596636	-0.231437	-0.639785	0.724459	-0.256583	0.014580	0.345232	0.938404	
5663														-0.407366	-0.153541	3.949457	0.756314	0.603713	-0.252030	-0.654056	0.706086	-0.271392	0.014112	0.370099	0.928885	
5664														-0.114995	0.637999	3.772338	0.744128	0.609919	-0.272528	-0.667796	0.690106	-0.278932	0.017947	0.389554	0.920829	
5665														0.171193	1.156496	3.908436	0.733824	0.613857	-0.291003	-0.678874	0.678497	-0.280663	0.025158	0.403511	0.914629	
5666														-0.174518	1.646097	4.004977	0.727870	0.613669	-0.305966	-0.684773	0.673881	-0.277435	0.035931	0.411454	0.910722	
5667														-1.235624	2.251746	3.979304	0.726212	0.609823	-0.317383	-0.685641	0.676140	-0.269688	0.050134	0.413461	0.909141	
5668														-1.684510	1.981716	3.536692	0.728176	0.603944	-0.324056	-0.682265	0.683819	-0.258662	0.065378	0.409443	0.909990	
5669														-1.704930	1.382814	2.255676	0.734443	0.596828	-0.323096	-0.674274	0.695793	-0.247440	0.077129	0.399586	0.913445	
5670														-2.550658	0.418774	1.375192	0.744974	0.589144	-0.312928	-0.662054	0.710505	-0.238468	0.081845	0.384827	0.919353	
5671														-4.130715	0.029486	0.948817	0.755748	0.586021	-0.292276	-0.650477	0.723337	-0.231652	0.075661	0.365189	0.927854	
5672														-4.282079	-0.950632	0.892614	0.763176	0.590976	-0.261362	-0.643709	0.730698	-0.227416	0.056580	0.341800	0.938068	
5673														-4.026744	-1.793603	1.616660	0.765462	0.603681	-0.222796	-0.642936	0.731755	-0.226202	0.026479	0.316393	0.948259	
5674														-3.174775	-1.244769	3.662421	0.762230	0.621668	-0.180374	-0.647235	0.727821	-0.226634	-0.009611	0.289492	0.957132	
5675														-2.660343	0.331861	7.165350	0.754651	0.640803	-0.140971	-0.654679	0.721143	-0.226601	-0.043547	0.263296	0.963732	
5676														-1.630989	2.965007	12.046229	0.745591	0.657171	-0.110545	-0.662998	0.714756	-0.222617	-0.067285	0.239272	0.968618	
5677														0.017489	4.821040	16.252780	0.740108	0.666769	-0.087519	-0.668019	0.713957	-0.209802	-0.077405	0.213740	0.973819	
5678														1.685139	6.133872	19.306721	0.740908	0.667799	-0.071407	-0.667588	0.720687	-0.186913	-0.073358	0.186156	0.979778	
5679														3.183226	7.382991	20.718751	0.747980	0.660512	-0.065201	-0.661282	0.733210	-0.158457	-0.056857	0.161638	0.985211	
5680														5.097668	8.406119	21.148621	0.759439	0.646290	-0.074580	-0.649866	0.748241	-0.133453	-0.030445	0.149816	0.988245	
5681														6.474250	8.125861	21.762044	0.771178	0.629162	-0.097160	-0.636619	0.761823	-0.119759	-0.001329	0.154209	0.988037	
5682														5.908259	6.185785	21.030632	0.779862	0.613445	-0.124504	-0.625498	0.771294	-0.117717	0.023816	0.169680	0.985211	
5683														3.881411	3.476856	18.553273	0.783185	0.602608	-0.153246	-0.620345	0.774047	-0.126582	0.042340	0.194203	0.980047	
5684														2.277079	1.364024	15.207384	0.780856	0.597581	-0.182104	-0.622405	0.769213	-0.144650	0.053636	0.226294	0.972581	
5685														0.738741	0.132400	12.236462	0.774117	0.597468	-0.209225	-0.630444	0.757529	-0.169379	0.057296	0.263024	0.963087	
5686														-0.584044	-0.454532	9.778312	0.764586	0.600976	-0.232888	-0.642209	0.740954	-0.196355	0.054555	0.299693	0.952475	
5687														-1.419018	-0.323851	7.897408	0.753005	0.607384	-0.253115	-0.656258	0.721296	-0.221489	0.048041	0.332891	0.941741	
5688														-1.425910	0.512373	6.511826	0.740233	0.615265	-0.271117	-0.671074	0.700932	-0.241565	0.041408	0.360754	0.931741	
5689														-0.919381	1.602231	5.658691	0.727297	0.622856	-0.288253	-0.685295	0.682024	-0.255368	0.037538	0.383267	0.922875	
5690														-0.427813	2.244349	5.144154	0.715552	0.628503	-0.304909	-0.697536	0.666463	-0.263193	0.037793	0.401014	0.915292	
5691														-0.164565	2.526735	4.769447	0.706839	0.630648	-0.320408	-0.706103	0.656178	-0.266174	0.042383	0.414383	0.909115	
5692														-0.258303	2.554675	4.169098	0.703035	0.628354	-0.333035	-0.709387	0.652634	-0.266155	0.050111	0.423367	0.904571	
5693														-0.350337	1.991980	3.356652	0.705262	0.622354	-0.339531	-0.706631	0.655773	-0.265772	0.057251	0.427362	0.902266	
5694														-0.870959	1.663325	1.631857	0.713121	0.614933	-0.336625	-0.698505	0.664075	-0.266636	0.059581	0.425278	0.903099	
5695														-1.847294	1.225140	0.526269	0.723794	0.608567	-0.325221	-0.687839	0.673753	-0.270062	0.054768	0.419168	0.906255	
5696														-2.230289	-0.749688	0.751366	0.735184	0.605026	-0.305693	-0.676505	0.683444	-0.274309	0.042960	0.408470	0.911760	
5697														-3.120869	-1.815235	0.446520	0.745215	0.605593	-0.279127	-0.666296	0.692909	-0.275548	0.026539	0.391324	0.919870	
5698														-3.412049	-1.708018	0.909677	0.750584	0.612427	-0.248106	-0.660737	0.699632	-0.271921	0.007051	0.368032	0.929786	
5699														-4.093335	-2.281917	3.174842	0.750410	0.625304	-0.214197	-0.660820	0.702768	-0.263506	-0.014240	0.339283	0.940577	
5700														-4.489867	-1.465699	6.195092	0.744129	0.643235	-0.180335	-0.667131	0.701483	-0.250714	-0.034766	0.306870	0.951116	
5701														-3.951885	1.381857	10.076621	0.734778	0.661027	-0.152137	-0.676614	0.698430	-0.233212	-0.047903	0.274297	0.960451	
5702														-2.319684	5.070629	14.682319	0.726749	0.674082	-0.132098	-0.685225	0.698008	-0.207971	-0.047984	0.241659	0.969174	
5703														0.549012	7.891470	19.066129	0.724702	0.678674	-0.119199	-0.688233	0.704432	-0.173525	-0.033799	0.207791	0.977589	
5704														3.946187	9.414888	21.889984	0.729756	0.674040	-0.114568	-0.683658	0.717371	-0.134130	-0.008222	0.176207	0.984319	
5705														6.204683	9.675194	22.546043	0.739481	0.661863	-0.122901	-0.672765	0.732998	-0.100506	0.023565	0.157006	0.987316	
5706														6.818493	9.068332	21.558830	0.748259	0.647697	-0.143514	-0.661262	0.745559	-0.082913	0.053296	0.156941	0.986169	
5707														5.620134	7.790506	20.904519	0.751623	0.637342	-0.169875	-0.655323	0.750824	-0.082556	0.074930	0.173374	0.982002	
5708														4.188457	5.912778	19.732868	0.748407	0.632804	-0.198612	-0.657357	0.747526	-0.095323	0.088146	0.201899	0.975432	
5709														3.383662	3.420417	17.328545	0.740172	0.632156	-0.229182	-0.665656	0.737071	-0.116744	0.095123	0.238967	0.966357	
5710														2.688971	0.846827	13.886138	0.729779	0.633126	-0.258019	-0.676987	0.721885	-0.143425	0.095454	0.279344	0.955435	
5711														1.271895	-0.644245	10.589255	0.719726	0.634436	-0.281933	-0.688538	0.704312	-0.172798	0.088940	0.318489	0.943745	
5712														-0.254805	-1.123889	7.970099	0.710709	0.636060	-0.300533	-0.699128	0.686089	-0.201251	0.078185	0.353142	0.932297	
5713														-1.202280	-0.685351	6.271043	0.702086	0.638216	-0.315840	-0.708941	0.668142	-0.225808	0.066911	0.382448	0.921551	
5714														-1.045462	0.651845	5.479452	0.693279	0.640941	-0.329483	-0.718338	0.651330	-0.244458	0.057919	0.406158	0.911966	
5715														-0.454196	2.070094	4.808811	0.684810	0.643270	-0.342401	-0.726780	0.637174	-0.256516	0.053160	0.424515	0.903859	
5716														-0.192438	2.747618	4.501794	0.677477	0.644057	-0.355267	-0.733617	0.626596	-0.263029	0.053203	0.438826	0.896996	
5717														-0.229680	2.833212	4.536934	0.672884	0.642267	-0.367041	-0.737522	0.620920	-0.265556	0.057345	0.449389	0.891494	
5718														-0.412793	2.568079	4.297701	0.673137	0.636602	-0.376330	-0.736595	0.622366	-0.264741	0.065680	0.455410	0.887856	
5719														-0.897491	2.416712	3.845382	0.679845	0.626502	-0.381191	-0.729229	0.632586	-0.260884	0.077691	0.455336	0.886923	
5720														-1.053912	1.707665	2.562356	0.693071	0.613522	-0.378476	-0.715281	0.650541	-0.255284	0.089592	0.447646	0.889711	
5721														-1.826036	1.480998	0.702663	0.710328	0.600296	-0.367531	-0.697120	0.672134	-0.249517	0.097246	0.433452	0.895914	
5722														-2.542610	0.640068	0.550691	0.727301	0.589792	-0.350968	-0.679237	0.691835	-0.244953	0.098341	0.416545	0.903781	
5723														-2.384266	-1.107651	1.675511	0.741917	0.584414	-0.328662	-0.664135	0.707878	-0.240487	0.092108	0.396697	0.913317	
5724														-2.103317	-1.699391	2.535826	0.752166	0.586536	-0.300370	-0.654313	0.718864	-0.234752	0.078234	0.373108	0.924483	
5725														-1.880126	-1.614851	3.784030	0.756051	0.597391	-0.267414	-0.651958	0.723432	-0.227147	0.057761	0.346077	0.936426	
5726														-1.603376	-0.527501	5.844540	0.754159	0.613830	-0.233361	-0.655766	0.722803	-0.218006	0.034856	0.317441	0.947637	
5727														-1.360483	1.972610	9.476929	0.748777	0.630425	-0.204689	-0.662618	0.719614	-0.207587	0.016429	0.291067	0.956562	
5728														-0.006233	4.841784	13.855843	0.743504	0.642985	-0.183772	-0.668691	0.717885	-0.193632	0.007425	0.266853	0.963709	
5729														2.023361	7.077083	17.953165	0.742263	0.648201	-0.169946	-0.670032	0.721742	-0.173622	0.010115	0.242742	0.970038	
5730														4.039053	8.735429	20.841569	0.745794	0.645652	-0.164084	-0.665755	0.731113	-0.149140	0.023672	0.220468	0.975107	
5731														5.128626	9.428387	21.893537	0.752852	0.635991	-0.169499	-0.656569	0.743730	-0.125627	0.046164	0.205866	0.977491	
5732														5.472351	8.996265	20.448802	0.759861	0.622392	-0.187722	-0.646000	0.755242	-0.110873	0.072769	0.205517	0.975944	
5733														4.517396	7.526103	18.979000	0.763515	0.609418	-0.213669	-0.638644	0.761624	-0.109833	0.095801	0.220317	0.970712	
5734														3.059633	5.204767	17.437554	0.763060	0.599389	-0.241811	-0.636705	0.761427	-0.121801	0.111115	0.246904	0.962648	
5735														1.742773	3.124210	15.187717	0.759346	0.592846	-0.268192	-0.640054	0.754748	-0.143830	0.117149	0.280874	0.952568	
5736														1.080297	1.747446	12.679639	0.753515	0.589730	-0.290574	-0.647554	0.742090	-0.173136	0.113529	0.318623	0.941058	
5737														0.603086	1.317973	11.003723	0.746892	0.588825	-0.308929	-0.657025	0.725006	-0.206601	0.102323	0.357283	0.928374	
5738														0.221361	1.278392	9.791164	0.739444	0.590297	-0.323687	-0.667598	0.704951	-0.239495	0.086810	0.393185	0.915352	
5739														0.218525	1.177371	8.587658	0.731010	0.594309	-0.335293	-0.678746	0.683848	-0.267686	0.070202	0.423260	0.903284	
5740														0.518494	1.281789	6.965202	0.721590	0.600394	-0.344725	-0.690135	0.663338	-0.289304	0.054972	0.446666	0.893011	
5741														1.265820	1.331200	5.770312	0.713670	0.605099	-0.352889	-0.699085	0.647063	-0.304286	0.044218	0.463859	0.884805	
5742														1.175803	1.605563	4.340566	0.711274	0.603950	-0.359630	-0.701665	0.640541	-0.312047	0.041897	0.474291	0.879371	
5743														-0.020870	2.423583	2.448707	0.714327	0.596818	-0.365438	-0.698084	0.644365	-0.312205	0.049146	0.478123	0.876917	
5744														-0.780544	2.247713	0.902632	0.720713	0.586539	-0.369519	-0.690365	0.655707	-0.305687	0.062999	0.475415	0.877503	
5745														-0.825309	0.989239	-0.231056	0.730587	0.574902	-0.368415	-0.678331	0.672839	-0.295219	0.078162	0.465591	0.881542	
5746														-1.750918	0.038959	-0.759353	0.742965	0.564547	-0.359569	-0.663431	0.692298	-0.283870	0.088671	0.449455	0.888891	
5747														-3.328046	-0.902908	0.062733	0.753823	0.560884	-0.342287	-0.650917	0.708598	-0.272387	0.089767	0.428132	0.899247	
5748														-3.266666	-1.331813	1.310210	0.760372	0.567076	-0.316637	-0.644547	0.718860	-0.260383	0.079961	0.402075	0.912108	
5749														-2.122841	-1.364077	2.632792	0.762189	0.581925	-0.283603	-0.644576	0.722758	-0.249286	0.059910	0.372806	0.925973	
5750														-1.147796	-0.873539	4.196339	0.760161	0.601331	-0.246083	-0.648849	0.722345	-0.239191	0.033923	0.341494	0.939271	
5751														-1.124065	0.199061	6.788506	0.755688	0.620401	-0.209854	-0.654875	0.719997	-0.229658	0.008614	0.310978	0.950378	
5752														-1.358880	3.113998	11.381048	0.750954	0.634555	-0.182780	-0.660309	0.718299	-0.219178	-0.007790	0.285284	0.958411	
5753														-0.558565	6.444712	16.400857	0.748517	0.642040	-0.165853	-0.663014	0.720229	-0.204165	-0.011630	0.262784	0.964785	
5754														2.044258	8.499708	20.404652	0.750547	0.641721	-0.157713	-0.660816	0.728411	-0.180941	-0.001233	0.240024	0.970766	
5755														4.398923	9.015203	22.288097	0.757941	0.632896	-0.158012	-0.651986	0.742778	-0.152302	0.020977	0.218458	0.975621	
5756														5.537021	8.851147	21.277293	0.767336	0.618359	-0.169790	-0.639335	0.758166	-0.128194	0.049459	0.206921	0.977107	
5757														5.046316	8.071527	19.663783	0.774299	0.603298	-0.191031	-0.628212	0.769164	-0.117200	0.076228	0.210755	0.974562	
5758														3.619772	6.341768	18.338433	0.776598	0.592290	-0.214679	-0.622836	0.773049	-0.120291	0.094711	0.227128	0.969249	
5759														2.403091	3.893652	16.582286	0.774732	0.585768	-0.238047	-0.623717	0.769784	-0.135683	0.103766	0.253592	0.961730	
5760														1.369632	2.055152	13.999446	0.770170	0.583034	-0.258668	-0.629379	0.760487	-0.159818	0.103534	0.285887	0.952654	
5761														0.624690	1.144376	11.348436	0.764026	0.583707	-0.274864	-0.638215	0.746208	-0.189353	0.094579	0.320094	0.942653	
5762														0.196243	0.776920	9.214783	0.756962	0.587310	-0.286488	-0.648667	0.728340	-0.220797	0.078984	0.352971	0.932295	
5763														0.339692	0.851680	7.624708	0.749489	0.592763	-0.294784	-0.659286	0.708716	-0.251122	0.060062	0.382561	0.921976	
5764														0.828533	1.326137	6.849960	0.741872	0.598763	-0.301842	-0.669240	0.689206	-0.277694	0.041758	0.408018	0.912018	
5765														1.131289	2.094211	6.515019	0.734472	0.604066	-0.309281	-0.678068	0.671893	-0.297964	0.027814	0.428560	0.903085	
5766														1.167931	2.839922	6.242134	0.727642	0.607389	-0.318772	-0.685633	0.658278	-0.310770	0.021082	0.444690	0.895437	
5767														0.939322	3.177830	5.814210	0.722233	0.607691	-0.330290	-0.691305	0.649325	-0.316976	0.021842	0.457262	0.889064	
5768														0.161956	3.095520	5.352169	0.718584	0.604972	-0.342995	-0.694844	0.644982	-0.318104	0.028782	0.466912	0.883835	
5769														-0.632042	3.004663	5.070196	0.716604	0.600708	-0.354441	-0.696425	0.644183	-0.316260	0.038345	0.473475	0.879972	
5770														-1.057830	2.748398	4.404757	0.716722	0.596314	-0.361550	-0.695780	0.646352	-0.313239	0.046899	0.476065	0.878159	
5771														-0.865534	1.976362	3.153010	0.719723	0.592214	-0.362328	-0.692272	0.651661	-0.309997	0.052531	0.473941	0.878988	
5772														-0.872042	1.415537	2.045464	0.725562	0.588488	-0.356710	-0.685991	0.659613	-0.307126	0.054550	0.467539	0.882288	
5773														-0.993203	1.364749	1.725162	0.733436	0.585579	-0.345207	-0.677715	0.669265	-0.304609	0.052662	0.457363	0.887719	
5774														-0.985960	0.224970	1.662892	0.741964	0.585381	-0.326831	-0.668875	0.679611	-0.301222	0.045788	0.442105	0.895794	
5775														-1.082040	-2.163004	1.577358	0.748975	0.590053	-0.301452	-0.661775	0.688809	-0.295965	0.033008	0.421164	0.906384	
5776														-1.580711	-3.189966	1.680703	0.752091	0.600979	-0.270523	-0.658894	0.694827	-0.288226	0.014749	0.395018	0.918555	
5777														-2.146926	-2.236866	3.492297	0.750246	0.616972	-0.237647	-0.661135	0.697035	-0.277566	-0.005603	0.365359	0.930850	
5778														-2.779682	0.877913	7.367040	0.744713	0.633369	-0.210346	-0.667074	0.696818	-0.263548	-0.020350	0.336584	0.941434	
5779														-2.248662	4.747142	12.010793	0.738508	0.646517	-0.191368	-0.673786	0.697192	-0.244819	-0.024860	0.309742	0.950496	
5780														-0.884216	7.510022	16.616101	0.735554	0.653268	-0.179448	-0.677243	0.702246	-0.219527	-0.017393	0.283004	0.958961	
5781														1.426113	9.344727	20.115625	0.738194	0.651744	-0.174068	-0.674584	0.714180	-0.186771	0.002589	0.255297	0.966859	
5782														4.066257	9.946253	21.502609	0.745460	0.642396	-0.177812	-0.665814	0.730190	-0.153344	0.031328	0.232701	0.972044	
5783														4.962380	9.498284	21.613220	0.754627	0.627352	-0.192269	-0.653258	0.745819	-0.130414	0.061582	0.224015	0.972638	
5784														4.455456	8.081289	19.748341	0.760866	0.613639	-0.211022	-0.643488	0.755447	-0.123382	0.083703	0.229668	0.969663	
5785														2.506352	5.898905	17.515152	0.762302	0.605984	-0.227329	-0.640717	0.756232	-0.132650	0.091529	0.246773	0.964741	
5786														1.110690	3.615842	15.193054	0.758972	0.604852	-0.241069	-0.645299	0.748139	-0.154521	0.086891	0.272839	0.958128	
5787														0.724640	1.926240	12.929508	0.752746	0.608285	-0.251719	-0.654339	0.733288	-0.184743	0.072206	0.303774	0.950004	
5788														0.744373	0.778898	10.896031	0.746238	0.613765	-0.257723	-0.663762	0.715426	-0.218142	0.050494	0.333853	0.941272	
5789														0.642791	0.359739	8.881542	0.741559	0.618792	-0.259204	-0.670333	0.699118	-0.248771	0.027277	0.358232	0.933234	
5790														0.468279	0.911499	7.202314	0.738312	0.622758	-0.258976	-0.674408	0.686422	-0.272027	0.008361	0.375496	0.926786	
5791														0.538945	1.757437	6.159680	0.735375	0.625684	-0.260274	-0.677653	0.677255	-0.286551	-0.003018	0.387098	0.922034	
5792														0.772682	2.254714	5.595438	0.732429	0.627164	-0.264976	-0.680821	0.671502	-0.292520	-0.005526	0.394652	0.918814	
5793														0.815251	2.082001	5.269692	0.730997	0.625652	-0.272401	-0.682380	0.670814	-0.290458	0.001005	0.398206	0.917296	
5794														-0.039512	2.317309	4.852072	0.731504	0.621296	-0.280878	-0.681674	0.675397	-0.281352	0.014901	0.397277	0.917578	
5795														-0.973031	2.631161	4.510260	0.732758	0.616290	-0.288536	-0.679734	0.682866	-0.267687	0.032059	0.392277	0.919288	
5796														-1.309952	2.370864	4.235735	0.734119	0.612379	-0.293362	-0.677318	0.690987	-0.252542	0.048058	0.384095	0.922042	
5797														-1.490430	1.999672	4.055020	0.735689	0.610329	-0.293702	-0.674757	0.698105	-0.239486	0.058870	0.374364	0.925411	
5798														-1.495166	1.985551	4.210239	0.737054	0.610619	-0.289647	-0.672892	0.702978	-0.230300	0.062990	0.364645	0.929014	
5799														-1.408820	1.844454	4.577089	0.738272	0.613103	-0.281175	-0.671760	0.705895	-0.224614	0.060769	0.354708	0.933000	
5800														-1.167031	1.646215	4.783226	0.739155	0.617635	-0.268656	-0.671424	0.707243	-0.221355	0.053289	0.343998	0.937457	
5801														-1.000209	1.291491	5.246549	0.739305	0.623995	-0.253098	-0.672069	0.707130	-0.219750	0.041850	0.332561	0.942153	
5802														-0.639163	1.039201	6.171338	0.738372	0.631800	-0.235873	-0.673791	0.705907	-0.218405	0.028516	0.320193	0.946923	
5803														-0.078719	0.997559	7.402290	0.737125	0.639566	-0.218179	-0.675561	0.705202	-0.215190	0.016232	0.306015	0.951888	
5804														0.282744	1.628526	8.611146	0.736200	0.645971	-0.201821	-0.676717	0.706191	-0.208204	0.008031	0.289855	0.957037	
5805														0.991782	2.676837	10.347719	0.736413	0.649760	-0.188438	-0.676507	0.709680	-0.196706	0.005919	0.272336	0.962184	
5806														1.722245	3.293007	11.764576	0.738214	0.650640	-0.178067	-0.674491	0.715909	-0.180379	0.010118	0.253262	0.967345	
5807														2.355709	3.647621	12.466731	0.742134	0.647989	-0.171309	-0.669963	0.724674	-0.161238	0.019663	0.234431	0.971934	
5808														2.378625	3.589495	12.719547	0.747217	0.642960	-0.168132	-0.663804	0.734286	-0.142085	0.032102	0.217775	0.975471	
5809														1.992952	3.339611	12.950585	0.752040	0.637522	-0.167335	-0.657643	0.742742	-0.125857	0.044050	0.204696	0.977834	
5810														1.389126	2.941280	13.052934	0.755095	0.633879	-0.167420	-0.653475	0.748296	-0.114125	0.052938	0.195580	0.979258	
5811														0.879421	2.543431	12.782721	0.755844	0.633111	-0.166942	-0.652267	0.750281	-0.107826	0.056988	0.190391	0.980053	
5812														0.426133	2.243070	12.193896	0.754577	0.635192	-0.164757	-0.653834	0.749114	-0.106442	0.055811	0.188042	0.980574	
5813														-0.035881	2.062009	11.556128	0.751782	0.639437	-0.161070	-0.657422	0.745770	-0.107812	0.051182	0.186942	0.981037	
5814														0.026231	1.974433	11.118136	0.747942	0.644977	-0.156805	-0.662231	0.741142	-0.110269	0.045094	0.186316	0.981454	
5815														0.147769	1.972788	10.985771	0.743921	0.650616	-0.152578	-0.667115	0.736424	-0.112414	0.039224	0.185414	0.981877	
5816														0.262924	2.501597	11.505275	0.740390	0.655479	-0.148898	-0.671247	0.732653	-0.112465	0.035372	0.183215	0.982436	
5817														0.115700	2.751814	11.270063	0.738923	0.657860	-0.145647	-0.672839	0.731917	-0.107639	0.035790	0.177534	0.983464	
5818														-0.043712	1.754718	10.136989	0.737488	0.659451	-0.145722	-0.674285	0.731139	-0.103806	0.038088	0.174813	0.983865	
5819														0.108622	1.816647	10.393782	0.735688	0.661087	-0.147402	-0.676144	0.729627	-0.102339	0.039894	0.174954	0.983768	
5820														0.148221	2.027841	10.183302	0.734250	0.662580	-0.147865	-0.677648	0.728435	-0.100880	0.040869	0.174271	0.983849	
5821														0.197348	1.963807	9.969355	0.733305	0.663560	-0.148159	-0.678630	0.727658	-0.099875	0.041536	0.173785	0.983907	
5822														0.585839	2.137291	9.997681	0.733224	0.663686	-0.147995	-0.678680	0.727759	-0.098794	0.042137	0.172880	0.984041	
5823														0.742901	2.207306	10.152991	0.734395	0.662624	-0.146946	-0.677371	0.729206	-0.097096	0.042816	0.170844	0.984367	
5824														0.314013	1.650724	9.670592	0.735631	0.661652	-0.145131	-0.675992	0.730795	-0.094732	0.043382	0.167795	0.984867	
5825														0.203380	1.413412	9.169553	0.735941	0.661644	-0.143585	-0.675653	0.731315	-0.093117	0.043396	0.165542	0.985247	
5826														0.107305	1.335068	8.320050	0.735239	0.662632	-0.142631	-0.676478	0.730542	-0.093196	0.042443	0.165008	0.985379	
5827														-0.458450	0.763746	6.530661	0.732952	0.664630	-0.145081	-0.679149	0.727192	-0.099741	0.039211	0.171637	0.984380	
5828														-0.034617	1.779322	9.240320	0.730331	0.666413	-0.150032	-0.682146	0.723070	-0.108842	0.035950	0.181835	0.982672	
5829														0.425367	1.542745	10.230670	0.729960	0.667063	-0.148948	-0.682649	0.722349	-0.110465	0.033905	0.182314	0.982656	
5830														0.620276	0.802777	8.591693	0.730550	0.667597	-0.143567	-0.682115	0.723258	-0.107781	0.031882	0.176668	0.983754	
5831														0.434572	0.885239	7.788416	0.731368	0.667654	-0.139066	-0.681334	0.724212	-0.106304	0.029739	0.172497	0.984561	
5832														0.364329	1.059271	8.577814	0.732061	0.667504	-0.136108	-0.680672	0.724852	-0.106182	0.027781	0.170377	0.984987	
5833														0.390243	1.074209	9.118244	0.732931	0.667347	-0.132133	-0.679812	0.725831	-0.105001	0.025834	0.166784	0.985655	
5834														0.449979	1.174383	8.876779	0.733815	0.667384	-0.126944	-0.678940	0.726945	-0.102914	0.023598	0.161707	0.986557	
5835														0.513726	1.388866	8.915823	0.734957	0.666985	-0.122353	-0.677765	0.728314	-0.100963	0.021771	0.157130	0.987338	
5836														0.554240	1.457365	9.275624	0.736110	0.666314	-0.119025	-0.676547	0.729668	-0.099342	0.020656	0.153653	0.987909	
5837														0.681824	1.617839	9.373537	0.737752	0.665124	-0.115466	-0.674787	0.731543	-0.097502	0.019617	0.149848	0.988514	
5838														0.813215	3.182532	17.278429	0.740737	0.665816	-0.089432	-0.671686	0.736422	-0.080746	0.012098	0.119882	0.992714	
5839														0.295068	2.197307	9.996086	0.745834	0.663631	-0.057667	-0.666079	0.744064	-0.052029	0.008380	0.077216	0.996979	
5840														-0.058197	2.280434	9.982876	0.752511	0.657831	-0.031391	-0.658534	0.752164	-0.024129	0.007738	0.038829	0.999216	
5841														-1.125123	1.811621	10.887801	0.754634	0.655961	-0.015573	-0.656126	0.754581	-0.010282	0.005006	0.017977	0.999826	
5842														0.213817	-0.573228	9.962014	0.757067	0.653329	-0.003301	-0.653337	0.757062	-0.002628	0.000782	0.004147	0.999991	
5843														-0.216425	-0.235330	9.276629	0.759421	0.650600	-0.000295	-0.650599	0.759421	0.000853	0.000779	-0.000456	1.000000	
5844														0.114922	0.360502	9.768671	0.761403	0.648276	-0.001528	-0.648274	0.761405	0.001829	0.002349	-0.000403	0.999997	
5845														-0.127900	-0.090356	9.887933	0.763605	0.645682	-0.001812	-0.645676	0.763606	0.002938	0.003281	-0.001074	0.999994	
5846														-0.144437	-0.143673	9.838818	0.765743	0.643144	-0.002027	-0.643135	0.765744	0.003521	0.003817	-0.001392	0.999992	
5847														-0.046280	-0.097102	9.789935	0.768019	0.640425	-0.001489	-0.640416	0.768018	0.004027	0.003723	-0.002139	0.999991	
5848														0.022680	0.094601	9.791534	0.770695	0.637203	-0.001257	-0.637193	0.770693	0.004180	0.003633	-0.002421	0.999990	
5849														-0.071295	-0.225882	9.788696	0.773356	0.633971	-0.001182	-0.633962	0.773352	0.004275	0.003624	-0.002557	0.999990	
5850														0.075388	-0.297188	9.689532	0.775555	0.631278	-0.001354	-0.631268	0.775552	0.004385	0.003818	-0.002546	0.999989	
5851														-0.140346	-0.371906	9.738760	0.777449	0.628944	-0.001915	-0.628930	0.777447	0.004800	0.004508	-0.002527	0.999987	
5852														-0.038418	-0.152820	9.887043	0.778786	0.627286	-0.002159	-0.627272	0.778785	0.004931	0.004775	-0.002486	0.999986	
5853														0.011095	0.043704	9.791153	0.779735	0.626106	-0.002172	-0.626091	0.779734	0.004968	0.004804	-0.002514	0.999985	
5854														-0.012893	0.067742	9.791562	0.780762	0.624825	-0.002156	-0.624810	0.780761	0.005031	0.004827	-0.002581	0.999985	
5855														0.133103	-0.152690	9.788339	0.781584	0.623796	-0.002164	-0.623781	0.781583	0.005024	0.004825	-0.002577	0.999985	
5856														0.011063	-0.054250	9.741298	0.781781	0.623549	-0.002147	-0.623534	0.781780	0.005052	0.004829	-0.002611	0.999985	
5857														0.059884	-0.103775	9.764890	0.782041	0.623224	-0.002151	-0.623209	0.782039	0.005066	0.004840	-0.002621	0.999985	
5858														0.231493	-0.104869	9.788232	0.782442	0.622719	-0.002258	-0.622704	0.782441	0.005113	0.004951	-0.002594	0.999984	
5859														-0.011714	-0.054185	9.765864	0.782938	0.622095	-0.002329	-0.622080	0.782937	0.005120	0.005009	-0.002560	0.999984	
5860														-0.084106	-0.195945	9.667220	0.783197	0.621766	-0.003068	-0.621749	0.783201	0.004910	0.005456	-0.001938	0.999983	
5861														0.045335	0.004438	9.790451	0.783241	0.621704	-0.004081	-0.621688	0.783251	0.004638	0.006080	-0.001096	0.999981	
5862														0.074491	0.033979	9.839284	0.783183	0.621775	-0.004469	-0.621759	0.783196	0.004522	0.006312	-0.000763	0.999980	
5863														0.074909	-0.011822	9.741191	0.783166	0.621796	-0.004594	-0.621780	0.783179	0.004478	0.006383	-0.000651	0.999979	
5864														0.002696	-0.035106	9.790371	0.783082	0.621900	-0.004732	-0.621885	0.783096	0.004455	0.006477	-0.000546	0.999979	
5865														0.102390	0.039521	9.765802	0.783016	0.621981	-0.005105	-0.621966	0.783032	0.004395	0.006731	-0.000266	0.999977	
5866														0.054790	-0.032446	9.814398	0.782949	0.622065	-0.005117	-0.622049	0.782966	0.004406	0.006747	-0.000267	0.999977	
5867														0.054594	-0.007427	9.741361	0.782951	0.622062	-0.005140	-0.622046	0.782968	0.004418	0.006772	-0.000262	0.999977	
5868														0.055138	-0.007833	9.790185	0.782898	0.622129	-0.005140	-0.622114	0.782914	0.004421	0.006774	-0.000263	0.999977	
5869														0.054846	-0.031969	9.765571	0.782910	0.622114	-0.005160	-0.622099	0.782926	0.004410	0.006784	-0.000243	0.999977	
5870														0.104087	0.016592	9.765575	0.782854	0.622184	-0.005161	-0.622169	0.782871	0.004421	0.006791	-0.000250	0.999977	
5871														0.055017	-0.007482	9.765772	0.782856	0.622181	-0.005148	-0.622165	0.782873	0.004404	0.006771	-0.000244	0.999977	
5872														0.030456	-0.007312	9.765971	0.782797	0.622256	-0.005137	-0.622240	0.782814	0.004399	0.006758	-0.000247	0.999977	
5873														0.030431	0.017303	9.741760	0.782790	0.622265	-0.005148	-0.622249	0.782807	0.004400	0.006768	-0.000241	0.999977	
5874														0.079282	-0.007653	9.765575	0.782752	0.622312	-0.005136	-0.622297	0.782769	0.004394	0.006755	-0.000244	0.999977	
5875														0.054870	0.041471	9.741764	0.782745	0.622321	-0.005114	-0.622306	0.782762	0.004389	0.006734	-0.000253	0.999977	
5876														0.055067	-0.007760	9.790186	0.782683	0.622399	-0.005159	-0.622383	0.782700	0.004408	0.006781	-0.000240	0.999977	
5877														0.054971	-0.007356	9.741359	0.782695	0.622384	-0.005160	-0.622368	0.782712	0.004422	0.006791	-0.000249	0.999977	
5878														0.079854	-0.008083	9.789984	0.782641	0.622452	-0.005151	-0.622436	0.782658	0.004437	0.006793	-0.000266	0.999977	
5879														0.079656	-0.007881	9.765572	0.782644	0.622449	-0.005159	-0.622433	0.782661	0.004417	0.006787	-0.000246	0.999977	
5880														0.055319	-0.007634	9.765771	0.782589	0.622517	-0.005171	-0.622501	0.782606	0.004430	0.006805	-0.000247	0.999977	
5881														0.031055	-0.007537	9.765969	0.782582	0.622526	-0.005173	-0.622510	0.782599	0.004443	0.006814	-0.000257	0.999977	
5882														0.055442	-0.032197	9.765567	0.782529	0.622593	-0.005185	-0.622577	0.782546	0.004455	0.006831	-0.000259	0.999977	
5883														0.079881	-0.008032	9.765570	0.782523	0.622601	-0.005138	-0.622585	0.782539	0.004431	0.006780	-0.000268	0.999977	
5884														0.079881	-0.008033	9.765570	0.782480	0.622654	-0.005184	-0.622638	0.782497	0.004450	0.006827	-0.000254	0.999977	
5885														0.055618	-0.007860	9.765769	0.782483	0.622651	-0.005161	-0.622635	0.782500	0.004445	0.006806	-0.000264	0.999977	
5886														0.079957	-0.008109	9.765569	0.782432	0.622714	-0.005161	-0.622699	0.782449	0.004447	0.006808	-0.000265	0.999977	
5887														0.055544	-0.008009	9.765769	0.782435	0.622711	-0.005151	-0.622695	0.782452	0.004451	0.006802	-0.000275	0.999977	
5888														0.055919	0.016125	9.790384	0.782380	0.622781	-0.005152	-0.622765	0.782396	0.004461	0.006809	-0.000282	0.999977	
5889														0.031132	-0.007909	9.765969	0.782380	0.622781	-0.005152	-0.622765	0.782396	0.004461	0.006809	-0.000282	0.999977	
5890														0.055989	-0.032905	9.814390	0.782323	0.622851	-0.005187	-0.622835	0.782340	0.004493	0.006857	-0.000285	0.999976	
5891														0.056341	-0.008290	9.790178	0.782325	0.622848	-0.005210	-0.622832	0.782343	0.004505	0.006882	-0.000279	0.999976	
5892														0.056492	-0.008141	9.790177	0.782278	0.622908	-0.005229	-0.622892	0.782295	0.004482	0.006883	-0.000249	0.999976	
5893														0.056469	0.016474	9.765967	0.782271	0.622916	-0.005209	-0.622900	0.782288	0.004498	0.006877	-0.000274	0.999976	
5894														0.080600	-0.032751	9.765360	0.782203	0.623002	-0.005211	-0.622986	0.782220	0.004523	0.006894	-0.000292	0.999976	
5895														0.081128	-0.008618	9.789973	0.782215	0.622987	-0.005222	-0.622970	0.782232	0.004525	0.006904	-0.000286	0.999976	
5896														0.080950	-0.032957	9.789771	0.782160	0.623056	-0.005220	-0.623040	0.782177	0.004507	0.006891	-0.000273	0.999976	
5897														0.032208	0.016501	9.766168	0.782160	0.623056	-0.005220	-0.623040	0.782177	0.004507	0.006891	-0.000273	0.999976	
5898														0.056241	-0.007810	9.741351	0.782089	0.623145	-0.005229	-0.623129	0.782106	0.004499	0.006893	-0.000260	0.999976	
5899														0.056464	-0.032556	9.789974	0.782091	0.623142	-0.005228	-0.623126	0.782109	0.004491	0.006888	-0.000254	0.999976	
5900														0.056242	-0.007736	9.741351	0.782036	0.623211	-0.005228	-0.623195	0.782053	0.004494	0.006890	-0.000256	0.999976	
5901														0.032000	-0.032175	9.765764	0.782038	0.623208	-0.005251	-0.623192	0.782056	0.004506	0.006915	-0.000251	0.999976	
5902														0.081409	0.016218	9.765760	0.781998	0.623259	-0.005253	-0.623242	0.782016	0.004529	0.006931	-0.000267	0.999976	
5903														0.057040	-0.008092	9.765760	0.781991	0.623267	-0.005276	-0.623251	0.782009	0.004540	0.006956	-0.000262	0.999976	
5904														0.057573	0.016191	9.790374	0.781940	0.623331	-0.005286	-0.623315	0.781958	0.004530	0.006957	-0.000248	0.999976	
5905														0.057286	-0.032485	9.789970	0.781933	0.623340	-0.005306	-0.623324	0.781951	0.004520	0.006967	-0.000227	0.999976	
5906														0.057339	-0.007870	9.765759	0.781873	0.623416	-0.005296	-0.623399	0.781890	0.004534	0.006968	-0.000243	0.999976	
5907														0.057158	-0.032357	9.765557	0.781894	0.623389	-0.005296	-0.623372	0.781912	0.004526	0.006962	-0.000238	0.999976	
5908														0.057672	-0.008277	9.814584	0.781826	0.623474	-0.005293	-0.623458	0.781844	0.004508	0.006949	-0.000225	0.999976	
5909														0.057287	-0.032561	9.789970	0.781819	0.623483	-0.005285	-0.623466	0.781837	0.004534	0.006959	-0.000250	0.999976	
5910														0.057340	-0.008094	9.765758	0.781774	0.623539	-0.005285	-0.623522	0.781792	0.004534	0.006959	-0.000250	0.999976	
5911														0.057212	-0.007965	9.741346	0.781777	0.623536	-0.005286	-0.623519	0.781795	0.004548	0.006969	-0.000260	0.999976	
5912														0.057306	-0.032657	9.765555	0.781726	0.623599	-0.005286	-0.623583	0.781744	0.004550	0.006969	-0.000261	0.999976	
5913														0.057618	-0.008523	9.790170	0.781720	0.623608	-0.005264	-0.623591	0.781737	0.004545	0.006949	-0.000270	0.999976	
5914														0.057619	-0.008598	9.790170	0.781685	0.623652	-0.005275	-0.623635	0.781702	0.004557	0.006966	-0.000272	0.999976	
5915														0.033004	-0.008285	9.765962	0.781697	0.623636	-0.005253	-0.623620	0.781715	0.004551	0.006945	-0.000282	0.999976	
5916														0.057879	0.015515	9.790373	0.781622	0.623730	-0.005257	-0.623713	0.781640	0.004597	0.006976	-0.000314	0.999976	
5917														0.033765	0.015622	9.790577	0.781624	0.623727	-0.005290	-0.623710	0.781642	0.004596	0.007002	-0.000293	0.999975	
5918														0.033395	-0.008306	9.741548	0.781567	0.623799	-0.005301	-0.623782	0.781585	0.004607	0.007017	-0.000294	0.999975	
5919														0.057976	-0.033182	9.765549	0.781570	0.623796	-0.005303	-0.623779	0.781587	0.004621	0.007027	-0.000304	0.999975	
5920														0.083003	-0.009161	9.789957	0.781521	0.623856	-0.005335	-0.623839	0.781539	0.004629	0.007058	-0.000289	0.999975	
5921														0.083359	-0.009292	9.814368	0.781524	0.623853	-0.005335	-0.623836	0.781542	0.004621	0.007052	-0.000284	0.999975	
5922														0.083022	-0.008883	9.765543	0.781471	0.623919	-0.005346	-0.623902	0.781489	0.004633	0.007069	-0.000285	0.999975	
5923														0.058535	-0.008698	9.765751	0.781455	0.623939	-0.005322	-0.623923	0.781473	0.004606	0.007033	-0.000279	0.999975	
5924														0.058125	-0.033184	9.765548	0.781389	0.624022	-0.005300	-0.624005	0.781407	0.004611	0.007019	-0.000296	0.999975	
5925														0.058294	0.015921	9.741544	0.781401	0.624006	-0.005330	-0.623990	0.781419	0.004589	0.007029	-0.000260	0.999975	
5926														0.058313	-0.008623	9.765752	0.781352	0.624068	-0.005308	-0.624051	0.781370	0.004593	0.007014	-0.000276	0.999975	
5927														0.058444	-0.008977	9.790165	0.781355	0.624064	-0.005298	-0.624047	0.781373	0.004597	0.007008	-0.000286	0.999975	
5928														0.058331	-0.033465	9.789960	0.781309	0.624122	-0.005309	-0.624105	0.781327	0.004608	0.007024	-0.000287	0.999975	
5929														0.082669	-0.008903	9.741131	0.781311	0.624119	-0.005311	-0.624102	0.781329	0.004621	0.007034	-0.000296	0.999975	
5930														0.058537	-0.009072	9.765751	0.781253	0.624192	-0.005300	-0.624175	0.781271	0.004634	0.007034	-0.000312	0.999975	
5931														0.058537	-0.009146	9.765750	0.781256	0.624188	-0.005300	-0.624171	0.781274	0.004626	0.007028	-0.000306	0.999975	
5932														0.058555	-0.008867	9.741337	0.781207	0.624249	-0.005344	-0.624232	0.781225	0.004646	0.007075	-0.000293	0.999975	
5933														0.034499	-0.008886	9.765957	0.781210	0.624246	-0.005322	-0.624228	0.781228	0.004640	0.007055	-0.000303	0.999975	
5934														0.058646	-0.033635	9.765544	0.781144	0.624328	-0.005312	-0.624311	0.781162	0.004655	0.007056	-0.000320	0.999975	
5935														0.059027	0.015040	9.765954	0.781157	0.624313	-0.005302	-0.624295	0.781175	0.004659	0.007051	-0.000330	0.999975	
5936														0.058704	-0.009240	9.741336	0.781113	0.624367	-0.005313	-0.624349	0.781131	0.004671	0.007067	-0.000331	0.999975	
5937														0.059343	-0.009656	9.790159	0.781116	0.624363	-0.005336	-0.624346	0.781134	0.004682	0.007092	-0.000326	0.999975	
5938														0.083622	-0.009639	9.765537	0.781038	0.624461	-0.005324	-0.624443	0.781056	0.004675	0.007078	-0.000327	0.999975	
5939														0.059610	0.014831	9.790364	0.781050	0.624445	-0.005344	-0.624428	0.781068	0.004665	0.007088	-0.000307	0.999975	
5940														0.059035	-0.033507	9.741127	0.781021	0.624482	-0.005368	-0.624464	0.781039	0.004685	0.007118	-0.000307	0.999975	
5941														0.084206	-0.009851	9.789946	0.781024	0.624479	-0.005348	-0.624461	0.781042	0.004701	0.007113	-0.000332	0.999975	
5942														0.059450	-0.009394	9.741331	0.780967	0.624549	-0.005359	-0.624532	0.780985	0.004711	0.007128	-0.000333	0.999975	
5943														0.060212	0.014603	9.790361	0.780969	0.624546	-0.005370	-0.624528	0.780988	0.004713	0.007138	-0.000327	0.999974	
5944														0.059674	-0.009395	9.741330	0.780917	0.624611	-0.005370	-0.624593	0.780936	0.004722	0.007143	-0.000333	0.999974	
5945														0.059809	-0.009602	9.765742	0.780920	0.624608	-0.005358	-0.624590	0.780939	0.004705	0.007122	-0.000328	0.999975	
5946														0.059734	-0.009677	9.765743	0.780858	0.624685	-0.005347	-0.624667	0.780877	0.004718	0.007123	-0.000344	0.999975	
5947														0.059944	-0.009959	9.790155	0.780880	0.624658	-0.005347	-0.624640	0.780898	0.004710	0.007117	-0.000338	0.999975	
5948														0.084148	-0.009945	9.765532	0.780815	0.624739	-0.005346	-0.624721	0.780834	0.004710	0.007117	-0.000338	0.999975	
5949														0.059810	-0.009678	9.765742	0.780818	0.624736	-0.005366	-0.624718	0.780836	0.004700	0.007127	-0.000317	0.999975	
5950														0.059811	-0.009603	9.765742	0.780773	0.624791	-0.005354	-0.624774	0.780792	0.004690	0.007111	-0.000317	0.999975	
5951														0.059406	-0.033883	9.741124	0.780776	0.624788	-0.005355	-0.624771	0.780794	0.004704	0.007121	-0.000327	0.999975	
5952														0.060244	-0.010036	9.790153	0.780712	0.624867	-0.005369	-0.624850	0.780731	0.004737	0.007151	-0.000344	0.999974	
5953														0.060305	0.014509	9.765947	0.780715	0.624864	-0.005356	-0.624846	0.780734	0.004720	0.007131	-0.000338	0.999975	
5954														0.084719	0.014313	9.765735	0.780694	0.624890	-0.005367	-0.624873	0.780712	0.004728	0.007145	-0.000337	0.999974	
5955														0.060469	-0.010188	9.790151	0.780687	0.624899	-0.005369	-0.624881	0.780705	0.004742	0.007155	-0.000347	0.999974	
5956														0.084820	-0.010176	9.765526	0.780628	0.624972	-0.005390	-0.624954	0.780647	0.004740	0.007170	-0.000332	0.999974	
5957														0.060680	0.014358	9.765945	0.780622	0.624981	-0.005370	-0.624963	0.780640	0.004756	0.007164	-0.000357	0.999974	
5958														0.060569	-0.034900	9.789942	0.780558	0.625060	-0.005371	-0.625042	0.780576	0.004779	0.007180	-0.000373	0.999974	
5959														0.060617	0.014269	9.741532	0.780558	0.625060	-0.005371	-0.625042	0.780576	0.004779	0.007180	-0.000373	0.999974	
5960														0.061053	-0.010772	9.814561	0.780509	0.625122	-0.005370	-0.625104	0.780527	0.004780	0.007180	-0.000374	0.999974	
5961														0.084906	-0.010341	9.741111	0.780511	0.625119	-0.005381	-0.625101	0.780530	0.004782	0.007190	-0.000368	0.999974	
5962														0.060582	-0.034692	9.765528	0.780463	0.625179	-0.005390	-0.625161	0.780481	0.004772	0.007191	-0.000355	0.999974	
5963														0.036518	-0.010009	9.765948	0.780446	0.625200	-0.005413	-0.625182	0.780465	0.004784	0.007216	-0.000349	0.999974	
5964														0.061080	-0.010207	9.765734	0.780421	0.625231	-0.005413	-0.625213	0.780440	0.004784	0.007215	-0.000349	0.999974	
5965														0.085905	0.013648	9.790140	0.780414	0.625240	-0.005393	-0.625221	0.780433	0.004800	0.007210	-0.000374	0.999974	
5966														0.061154	-0.010506	9.765733	0.780366	0.625300	-0.005404	-0.625282	0.780384	0.004810	0.007225	-0.000375	0.999974	
5967														0.037092	0.014104	9.766155	0.780368	0.625297	-0.005415	-0.625279	0.780387	0.004812	0.007235	-0.000369	0.999974	
5968														0.061516	0.014114	9.741527	0.780331	0.625342	-0.005438	-0.625324	0.780350	0.004831	0.007265	-0.000369	0.999974	
5969														0.037190	-0.010309	9.765945	0.780315	0.625363	-0.005425	-0.625344	0.780334	0.004814	0.007244	-0.000363	0.999974	
5970														0.061677	-0.010584	9.765730	0.780283	0.625403	-0.005439	-0.625384	0.780302	0.004844	0.007273	-0.000378	0.999973	
5971														0.062115	-0.010945	9.790140	0.780295	0.625388	-0.005440	-0.625369	0.780314	0.004857	0.007283	-0.000388	0.999973	
5972														0.062125	-0.010810	9.765727	0.780245	0.625450	-0.005463	-0.625432	0.780264	0.004877	0.007313	-0.000389	0.999973	
5973														0.062415	-0.011096	9.790138	0.780248	0.625447	-0.005441	-0.625428	0.780267	0.004872	0.007292	-0.000398	0.999973	
5974														0.061995	-0.035521	9.765516	0.780191	0.625517	-0.005433	-0.625498	0.780210	0.004907	0.007308	-0.000430	0.999973	
5975														0.062132	-0.011047	9.741312	0.780184	0.625526	-0.005444	-0.625507	0.780203	0.004909	0.007318	-0.000425	0.999973	
5976														0.086835	-0.011536	9.765507	0.780138	0.625584	-0.005434	-0.625565	0.780157	0.004923	0.007319	-0.000441	0.999973	
5977														0.062564	-0.011696	9.790137	0.780150	0.625569	-0.005412	-0.625550	0.780169	0.004917	0.007298	-0.000451	0.999973	
5978														0.062620	0.012642	9.790348	0.780101	0.625630	-0.005399	-0.625611	0.780120	0.004908	0.007282	-0.000451	0.999973	
5979														0.038348	0.037396	9.766363	0.780094	0.625639	-0.005424	-0.625619	0.780113	0.004941	0.007323	-0.000461	0.999973	
5980														0.062713	-0.011996	9.790135	0.780052	0.625692	-0.005402	-0.625673	0.780070	0.004944	0.007307	-0.000477	0.999973	
5981														0.038011	-0.011653	9.765941	0.780054	0.625689	-0.005401	-0.625669	0.780073	0.004937	0.007302	-0.000472	0.999973	
5982														0.086761	-0.012062	9.765507	0.779998	0.625759	-0.005388	-0.625740	0.780016	0.004927	0.007286	-0.000471	0.999973	
5983														0.062557	0.012629	9.765935	0.780000	0.625756	-0.005409	-0.625737	0.780019	0.004917	0.007296	-0.000451	0.999973	
5984														0.086622	-0.011702	9.741094	0.779957	0.625810	-0.005408	-0.625791	0.779975	0.004916	0.007295	-0.000450	0.999973	
5985														0.062640	-0.012071	9.790136	0.779940	0.625831	-0.005388	-0.625811	0.779959	0.004932	0.007289	-0.000475	0.999973	
5986														0.063004	-0.012510	9.814547	0.779882	0.625904	-0.005401	-0.625884	0.779900	0.004964	0.007319	-0.000491	0.999973	
5987														0.062796	-0.012083	9.765721	0.779894	0.625889	-0.005422	-0.625869	0.779912	0.004954	0.007329	-0.000470	0.999973	
5988														0.063005	0.012329	9.765933	0.779834	0.625963	-0.005399	-0.625944	0.779852	0.004956	0.007313	-0.000485	0.999973	
5989														0.063013	-0.012298	9.790133	0.779836	0.625960	-0.005420	-0.625940	0.779855	0.004946	0.007323	-0.000465	0.999973	
5990														0.062947	-0.012010	9.765720	0.779782	0.626027	-0.005431	-0.626008	0.779801	0.004957	0.007338	-0.000466	0.999973	
5991														0.063096	-0.011937	9.765719	0.779785	0.626024	-0.005452	-0.626005	0.779804	0.004947	0.007348	-0.000445	0.999973	
5992														0.063171	-0.011937	9.765719	0.779720	0.626104	-0.005441	-0.626085	0.779739	0.004960	0.007348	-0.000461	0.999973	
5993														0.038833	-0.011805	9.765937	0.779723	0.626101	-0.005452	-0.626082	0.779742	0.004962	0.007358	-0.000455	0.999973	
5994														0.063320	-0.012087	9.765717	0.779679	0.626155	-0.005442	-0.626136	0.779698	0.004975	0.007358	-0.000471	0.999973	
5995														0.038909	-0.011954	9.765937	0.779682	0.626152	-0.005441	-0.626132	0.779701	0.004967	0.007352	-0.000466	0.999973	
5996														0.039120	0.012459	9.766149	0.779634	0.626212	-0.005440	-0.626192	0.779653	0.004967	0.007352	-0.000465	0.999973	
5997														0.063682	0.012323	9.765928	0.779636	0.626209	-0.005473	-0.626189	0.779656	0.004966	0.007377	-0.000445	0.999973	
5998														0.039577	-0.012020	9.790347	0.779587	0.626270	-0.005495	-0.626250	0.779606	0.004985	0.007406	-0.000445	0.999972	
5999														0.088700	-0.012441	9.789903	0.779589	0.626267	-0.005518	-0.626247	0.779609	0.004997	0.007431	-0.000440	0.999972	
6000														0.039660	-0.011595	9.741521	0.779546	0.626320	-0.005530	-0.626300	0.779566	0.005005	0.007445	-0.000438	0.999972	
6001														0.064147	-0.011881	9.741298	0.779568	0.626293	-0.005519	-0.626273	0.779588	0.005009	0.007440	-0.000448	0.999972	
6002														0.088786	-0.037082	9.789688	0.779512	0.626363	-0.005509	-0.626343	0.779531	0.005020	0.007439	-0.000463	0.999972	
6003														0.064293	-0.012393	9.765711	0.779524	0.626348	-0.005487	-0.626328	0.779544	0.005015	0.007418	-0.000473	0.999972	
6004														0.064218	-0.012616	9.765711	0.779458	0.626430	-0.005466	-0.626410	0.779477	0.005038	0.007416	-0.000503	0.999972	
6005														0.039805	-0.012478	9.765933	0.779461	0.626427	-0.005475	-0.626407	0.779480	0.005018	0.007411	-0.000482	0.999972	
6006														0.064433	0.011796	9.765924	0.779407	0.626494	-0.005474	-0.626474	0.779426	0.005019	0.007411	-0.000483	0.999972	
6007														0.039806	-0.012553	9.765933	0.779410	0.626490	-0.005454	-0.626470	0.779429	0.005035	0.007406	-0.000508	0.999972	
6008														0.064213	0.011713	9.741512	0.779366	0.626545	-0.005453	-0.626525	0.779385	0.005034	0.007404	-0.000507	0.999972	
6009														0.039880	-0.012777	9.765932	0.779369	0.626542	-0.005454	-0.626522	0.779387	0.005048	0.007414	-0.000517	0.999972	
6010														0.064662	-0.013282	9.790121	0.779319	0.626603	-0.005465	-0.626583	0.779338	0.005057	0.007428	-0.000517	0.999972	
6011														0.064811	-0.013358	9.790120	0.779312	0.626612	-0.005466	-0.626592	0.779331	0.005071	0.007437	-0.000527	0.999972	
6012														0.064811	-0.013507	9.790120	0.779260	0.626678	-0.005444	-0.626657	0.779278	0.005072	0.007421	-0.000541	0.999972	
6013														0.040178	-0.013001	9.765930	0.779272	0.626662	-0.005475	-0.626642	0.779291	0.005050	0.007431	-0.000505	0.999972	
6014														0.064449	-0.037480	9.765493	0.779224	0.626721	-0.005474	-0.626701	0.779243	0.005050	0.007430	-0.000505	0.999972	
6015														0.064962	-0.013285	9.790119	0.779217	0.626730	-0.005485	-0.626710	0.779236	0.005052	0.007440	-0.000499	0.999972	
6016														0.065259	-0.013501	9.814531	0.779162	0.626799	-0.005483	-0.626779	0.779181	0.005060	0.007444	-0.000506	0.999972	
6017														0.040696	0.011559	9.766144	0.779174	0.626784	-0.005495	-0.626764	0.779193	0.005062	0.007454	-0.000500	0.999972	
6018														0.040475	0.011775	9.741732	0.779101	0.626874	-0.005481	-0.626854	0.779120	0.005052	0.007437	-0.000501	0.999972	
6019														0.089378	-0.013286	9.765482	0.779123	0.626847	-0.005504	-0.626827	0.779142	0.005064	0.007463	-0.000495	0.999972	
6020														0.065333	0.011192	9.765919	0.779050	0.626937	-0.005483	-0.626917	0.779069	0.005088	0.007461	-0.000526	0.999972	
6021														0.040702	-0.013152	9.765928	0.779072	0.626910	-0.005483	-0.626890	0.779091	0.005080	0.007456	-0.000521	0.999972	
6022														0.041000	-0.013295	9.790340	0.779014	0.626982	-0.005503	-0.626962	0.779033	0.005077	0.007470	-0.000505	0.999972	
6023														0.065339	-0.013296	9.765703	0.779007	0.626991	-0.005505	-0.626970	0.779026	0.005091	0.007480	-0.000514	0.999972	
6024														0.065707	0.010966	9.765917	0.778957	0.627053	-0.005506	-0.627033	0.778976	0.005112	0.007495	-0.000529	0.999972	
6025														0.065711	-0.013596	9.765700	0.778959	0.627050	-0.005520	-0.627029	0.778979	0.005135	0.007520	-0.000539	0.999972	
6026														0.066005	0.010741	9.765915	0.778893	0.627133	-0.005507	-0.627113	0.778912	0.005125	0.007504	-0.000538	0.999972	
6027														0.065934	-0.014038	9.790111	0.778914	0.627106	-0.005488	-0.627085	0.778934	0.005141	0.007499	-0.000563	0.999972	
6028														0.090197	-0.014115	9.765473	0.778863	0.627170	-0.005507	-0.627150	0.778882	0.005137	0.007511	-0.000547	0.999972	
6029														0.066304	0.010223	9.790327	0.778846	0.627191	-0.005487	-0.627170	0.778865	0.005153	0.007505	-0.000572	0.999972	
6030														0.041222	-0.013756	9.741512	0.778808	0.627238	-0.005477	-0.627217	0.778827	0.005164	0.007504	-0.000586	0.999972	
6031														0.066082	-0.014488	9.790110	0.778808	0.627238	-0.005477	-0.627217	0.778827	0.005164	0.007504	-0.000586	0.999972	
6032														0.066081	0.010143	9.765915	0.778776	0.627279	-0.005476	-0.627258	0.778795	0.005162	0.007502	-0.000585	0.999972	
6033														0.041372	-0.014123	9.765924	0.778769	0.627287	-0.005453	-0.627266	0.778788	0.005156	0.007481	-0.000595	0.999972	
6034														0.065785	-0.014419	9.765698	0.778737	0.627327	-0.005463	-0.627306	0.778756	0.005165	0.007495	-0.000596	0.999972	
6035														0.041746	0.010139	9.766141	0.778730	0.627335	-0.005464	-0.627314	0.778749	0.005179	0.007504	-0.000605	0.999972	
6036														0.090719	0.009696	9.765687	0.778667	0.627414	-0.005485	-0.627393	0.778686	0.005177	0.007519	-0.000590	0.999972	
6037														0.065859	-0.014201	9.741284	0.778669	0.627410	-0.005472	-0.627390	0.778688	0.005160	0.007498	-0.000585	0.999972	
6038														0.066008	0.010137	9.741502	0.778593	0.627505	-0.005461	-0.627484	0.778612	0.005172	0.007498	-0.000601	0.999972	
6039														0.041820	0.009990	9.766141	0.778596	0.627502	-0.005451	-0.627481	0.778615	0.005176	0.007492	-0.000610	0.999972	
6040														0.065859	-0.014499	9.741283	0.778564	0.627541	-0.005461	-0.627520	0.778583	0.005184	0.007505	-0.000609	0.999972	
6041														0.041596	-0.014277	9.741509	0.778557	0.627550	-0.005472	-0.627528	0.778576	0.005185	0.007515	-0.000603	0.999972	
6042														0.066532	-0.015016	9.790106	0.778497	0.627625	-0.005461	-0.627604	0.778516	0.005197	0.007513	-0.000618	0.999972	
6043														0.066532	-0.015090	9.790106	0.778499	0.627622	-0.005461	-0.627600	0.778518	0.005189	0.007508	-0.000613	0.999972	
6044														0.041894	-0.014796	9.765921	0.778430	0.627708	-0.005439	-0.627687	0.778449	0.005212	0.007506	-0.000643	0.999972	
6045														0.066155	-0.014947	9.741281	0.778452	0.627681	-0.005451	-0.627659	0.778471	0.005214	0.007516	-0.000637	0.999972	
6046														0.042269	0.009392	9.766139	0.778404	0.627741	-0.005440	-0.627719	0.778422	0.005225	0.007515	-0.000652	0.999972	
6047														0.066529	-0.015393	9.765691	0.778397	0.627749	-0.005442	-0.627728	0.778415	0.005238	0.007524	-0.000662	0.999971	
6048														0.066603	-0.015543	9.765691	0.778333	0.627829	-0.005431	-0.627807	0.778351	0.005248	0.007522	-0.000676	0.999971	
6049														0.066904	0.008869	9.765911	0.778345	0.627814	-0.005452	-0.627792	0.778363	0.005238	0.007532	-0.000655	0.999971	
6050														0.066905	0.008943	9.765911	0.778303	0.627865	-0.005438	-0.627843	0.778322	0.005226	0.007514	-0.000653	0.999972	
6051														0.042642	0.009092	9.766138	0.778296	0.627874	-0.005463	-0.627852	0.778315	0.005259	0.007554	-0.000663	0.999971	
6052														0.091612	-0.015846	9.765457	0.778272	0.627903	-0.005486	-0.627881	0.778291	0.005276	0.007583	-0.000662	0.999971	
6053														0.043012	-0.015471	9.765915	0.778265	0.627912	-0.005488	-0.627890	0.778284	0.005290	0.007593	-0.000671	0.999971	
6054														0.043618	-0.015993	9.814738	0.778226	0.627961	-0.005498	-0.627939	0.778245	0.005297	0.007605	-0.000670	0.999971	
6055														0.067648	-0.015848	9.765683	0.778238	0.627945	-0.005488	-0.627923	0.778257	0.005301	0.007599	-0.000679	0.999971	
6056														0.067722	-0.015998	9.765682	0.778178	0.628020	-0.005488	-0.627998	0.778197	0.005321	0.007613	-0.000695	0.999971	
6057														0.043688	0.008566	9.766134	0.778180	0.628017	-0.005499	-0.627995	0.778199	0.005323	0.007623	-0.000689	0.999971	
6058														0.068100	-0.016297	9.790093	0.778118	0.628094	-0.005486	-0.628072	0.778137	0.005311	0.007605	-0.000688	0.999971	
6059														0.043688	0.008492	9.766134	0.778130	0.628079	-0.005487	-0.628057	0.778149	0.005325	0.007614	-0.000697	0.999971	
6060														0.043764	0.008417	9.766134	0.778081	0.628140	-0.005485	-0.628117	0.778100	0.005324	0.007612	-0.000697	0.999971	
6061														0.068021	0.008338	9.741490	0.778074	0.628148	-0.005487	-0.628126	0.778093	0.005338	0.007622	-0.000707	0.999971	
6062														0.068554	0.007889	9.790313	0.778015	0.628221	-0.005494	-0.628199	0.778034	0.005324	0.007619	-0.000691	0.999971	
6063														0.068014	-0.016001	9.741266	0.778027	0.628206	-0.005517	-0.628184	0.778047	0.005336	0.007645	-0.000686	0.999971	
6064														0.043982	-0.015997	9.765910	0.777977	0.628269	-0.005516	-0.628247	0.777996	0.005335	0.007643	-0.000685	0.999971	
6065														0.068700	0.008111	9.765899	0.777979	0.628266	-0.005518	-0.628243	0.777998	0.005349	0.007653	-0.000695	0.999970	
6066														0.068469	-0.016376	9.765676	0.777930	0.628327	-0.005505	-0.628305	0.777949	0.005338	0.007637	-0.000694	0.999971	
6067														0.068320	-0.016450	9.765677	0.777923	0.628336	-0.005483	-0.628314	0.777942	0.005332	0.007616	-0.000703	0.999971	
6068														0.043984	0.008342	9.741720	0.777883	0.628385	-0.005505	-0.628363	0.777902	0.005349	0.007643	-0.000701	0.999971	
6069														0.068774	-0.016826	9.790087	0.777885	0.628382	-0.005495	-0.628360	0.777905	0.005353	0.007638	-0.000711	0.999971	
6070														0.044595	0.007742	9.790543	0.777853	0.628423	-0.005494	-0.628400	0.777872	0.005348	0.007635	-0.000707	0.999971	
6071														0.043976	-0.016145	9.741496	0.777855	0.628419	-0.005515	-0.628397	0.777874	0.005338	0.007645	-0.000687	0.999971	
6072														0.044746	0.007816	9.790543	0.777795	0.628493	-0.005504	-0.628471	0.777815	0.005349	0.007643	-0.000701	0.999971	
6073														0.068927	0.007660	9.765898	0.777808	0.628478	-0.005494	-0.628456	0.777827	0.005353	0.007638	-0.000711	0.999971	
6074														0.068999	-0.017053	9.790085	0.777767	0.628528	-0.005504	-0.628506	0.777787	0.005359	0.007650	-0.000709	0.999970	
6075														0.044583	0.008042	9.741717	0.777770	0.628525	-0.005527	-0.628502	0.777789	0.005371	0.007675	-0.000703	0.999970	
6076														0.069301	0.007508	9.765895	0.777704	0.628607	-0.005504	-0.628584	0.777723	0.005373	0.007658	-0.000719	0.999970	
6077														0.068525	-0.041089	9.741036	0.777707	0.628603	-0.005513	-0.628581	0.777726	0.005354	0.007653	-0.000698	0.999970	
6078														0.044812	-0.016821	9.790318	0.777654	0.628668	-0.005512	-0.628645	0.777674	0.005360	0.007657	-0.000703	0.999970	
6079														0.069459	0.007357	9.790307	0.777654	0.628668	-0.005512	-0.628645	0.777674	0.005360	0.007657	-0.000703	0.999970	
6080														0.068918	-0.016903	9.765672	0.777602	0.628732	-0.005488	-0.628710	0.777621	0.005361	0.007639	-0.000718	0.999971	
6081														0.068992	-0.016979	9.765672	0.777605	0.628729	-0.005511	-0.628707	0.777624	0.005373	0.007664	-0.000713	0.999970	
6082														0.069609	0.007132	9.790306	0.777545	0.628803	-0.005501	-0.628781	0.777564	0.005383	0.007662	-0.000727	0.999970	
6083														0.044654	-0.016969	9.765905	0.777557	0.628788	-0.005479	-0.628765	0.777576	0.005378	0.007641	-0.000737	0.999971	
6084														0.069610	0.006757	9.790307	0.777519	0.628836	-0.005482	-0.628813	0.777538	0.005417	0.007669	-0.000765	0.999970	
6085														0.044877	-0.017342	9.765903	0.777521	0.628833	-0.005481	-0.628810	0.777540	0.005409	0.007663	-0.000759	0.999970	
6086														0.093543	-0.017660	9.741021	0.777463	0.628905	-0.005481	-0.628882	0.777482	0.005429	0.007675	-0.000774	0.999970	
6087														0.044788	-0.041904	9.765677	0.777466	0.628902	-0.005480	-0.628879	0.777485	0.005421	0.007670	-0.000768	0.999970	
6088														0.045190	0.006920	9.766128	0.777423	0.628954	-0.005466	-0.628931	0.777442	0.005408	0.007651	-0.000767	0.999970	
6089														0.068898	-0.017346	9.716844	0.777416	0.628963	-0.005468	-0.628940	0.777435	0.005422	0.007661	-0.000776	0.999970	
6090														0.069601	0.006535	9.765894	0.777354	0.629040	-0.005455	-0.629017	0.777372	0.005410	0.007643	-0.000774	0.999970	
6091														0.069289	-0.017876	9.765668	0.777376	0.629013	-0.005454	-0.628990	0.777394	0.005402	0.007638	-0.000769	0.999971	
6092														0.045185	-0.017794	9.790314	0.777313	0.629091	-0.005473	-0.629068	0.777331	0.005399	0.007651	-0.000754	0.999970	
6093														0.069753	0.006608	9.765892	0.777306	0.629099	-0.005474	-0.629077	0.777324	0.005413	0.007660	-0.000763	0.999970	
6094														0.044937	-0.042053	9.765675	0.777068	0.629396	-0.005180	-0.629374	0.777085	0.005299	0.007361	-0.000858	0.999973	
6095														0.069662	-0.017954	9.765665	0.777070	0.629393	-0.005181	-0.629371	0.777087	0.005313	0.007370	-0.000868	0.999972	
6096														0.070210	0.006079	9.790303	0.777024	0.629450	-0.005170	-0.629428	0.777041	0.005323	0.007367	-0.000882	0.999972	
6097														0.070211	0.006004	9.790303	0.777026	0.629447	-0.005169	-0.629425	0.777043	0.005315	0.007362	-0.000876	0.999973	
6098														0.045475	-0.017866	9.765900	0.776995	0.629486	-0.005201	-0.629464	0.777011	0.005318	0.007389	-0.000859	0.999972	
6099														0.070352	0.006305	9.765888	0.776987	0.629495	-0.005202	-0.629473	0.777004	0.005332	0.007398	-0.000869	0.999972	
6100														0.070260	-0.018107	9.765661	0.776925	0.629572	-0.005221	-0.629550	0.776942	0.005329	0.007412	-0.000854	0.999972	
6101														0.070489	0.006532	9.741474	0.776927	0.629569	-0.005234	-0.629547	0.776944	0.005353	0.007436	-0.000863	0.999972	
6102														0.071110	0.006073	9.790296	0.776876	0.629632	-0.005243	-0.629610	0.776893	0.005337	0.007434	-0.000846	0.999972	
6103														0.046221	-0.017870	9.765896	0.776878	0.629629	-0.005232	-0.629607	0.776895	0.005341	0.007428	-0.000855	0.999972	
6104														0.071110	0.005924	9.790297	0.776826	0.629693	-0.005219	-0.629671	0.776843	0.005349	0.007423	-0.000869	0.999972	
6105														0.070639	0.006233	9.741473	0.776839	0.629678	-0.005208	-0.629656	0.776855	0.005353	0.007417	-0.000879	0.999972	
6106														0.046295	-0.018243	9.765895	0.776773	0.629759	-0.005218	-0.629736	0.776790	0.005360	0.007429	-0.000878	0.999972	
6107														0.071334	0.005623	9.790295	0.776785	0.629744	-0.005219	-0.629721	0.776802	0.005374	0.007438	-0.000888	0.999972	
6108														0.071248	0.005703	9.765882	0.776754	0.629783	-0.005220	-0.629760	0.776771	0.005391	0.007450	-0.000900	0.999972	
6109														0.071323	0.005702	9.765882	0.776747	0.629791	-0.005229	-0.629769	0.776764	0.005372	0.007445	-0.000880	0.999972	
6110														0.046979	-0.018624	9.790304	0.776688	0.629864	-0.005238	-0.629842	0.776705	0.005379	0.007456	-0.000879	0.999972	
6111														0.071473	0.005776	9.765881	0.776688	0.629864	-0.005238	-0.629842	0.776705	0.005379	0.007456	-0.000879	0.999972	
6112														0.071399	0.005850	9.765881	0.776645	0.629917	-0.005234	-0.629895	0.776662	0.005355	0.007438	-0.000862	0.999972	
6113														0.046676	0.006323	9.741709	0.776647	0.629914	-0.005224	-0.629892	0.776664	0.005359	0.007433	-0.000872	0.999972	
6114														0.071393	-0.018867	9.790065	0.776621	0.629946	-0.005234	-0.629924	0.776638	0.005366	0.007445	-0.000870	0.999972	
6115														0.071552	0.005848	9.765880	0.776633	0.629932	-0.005255	-0.629909	0.776650	0.005356	0.007455	-0.000849	0.999972	
6116														0.047291	0.006240	9.766119	0.776581	0.629996	-0.005274	-0.629974	0.776598	0.005350	0.007466	-0.000832	0.999972	
6117														0.071768	-0.018646	9.790063	0.776564	0.630017	-0.005263	-0.629994	0.776581	0.005354	0.007460	-0.000842	0.999972	
6118														0.047439	0.006090	9.766118	0.776522	0.630068	-0.005263	-0.630046	0.776539	0.005371	0.007471	-0.000855	0.999972	
6119														0.072000	0.005770	9.765877	0.776524	0.630065	-0.005274	-0.630043	0.776542	0.005373	0.007481	-0.000850	0.999972	
6120														0.047655	-0.018628	9.790301	0.776477	0.630123	-0.005270	-0.630101	0.776495	0.005370	0.007476	-0.000849	0.999972	
6121														0.071515	-0.018412	9.741237	0.776480	0.630120	-0.005258	-0.630098	0.776497	0.005353	0.007455	-0.000843	0.999972	
6122														0.047740	0.006014	9.766117	0.776438	0.630171	-0.005290	-0.630149	0.776456	0.005377	0.007496	-0.000842	0.999972	
6123														0.048204	0.005783	9.790528	0.776441	0.630168	-0.005289	-0.630146	0.776458	0.005369	0.007490	-0.000836	0.999972	
6124														0.047890	0.005939	9.766116	0.776392	0.630228	-0.005266	-0.630206	0.776410	0.005367	0.007471	-0.000848	0.999972	
6125														0.072376	0.005767	9.765874	0.776385	0.630237	-0.005308	-0.630214	0.776403	0.005355	0.007496	-0.000813	0.999972	
6126														0.048031	-0.018555	9.790299	0.776327	0.630309	-0.005285	-0.630287	0.776344	0.005355	0.007478	-0.000826	0.999972	
6127														0.072682	-0.019031	9.814469	0.776329	0.630306	-0.005306	-0.630284	0.776347	0.005345	0.007488	-0.000806	0.999972	
6128														0.072452	0.005915	9.765873	0.776277	0.630369	-0.005292	-0.630347	0.776295	0.005331	0.007468	-0.000803	0.999972	
6129														0.047403	-0.018094	9.741477	0.776280	0.630366	-0.005269	-0.630344	0.776297	0.005326	0.007447	-0.000813	0.999972	
6130														0.072213	0.005996	9.741462	0.776228	0.630430	-0.005303	-0.630407	0.776246	0.005353	0.007491	-0.000812	0.999972	
6131														0.048430	0.005707	9.790526	0.776221	0.630438	-0.005281	-0.630416	0.776239	0.005347	0.007470	-0.000822	0.999972	
6132														0.048355	0.005483	9.790527	0.776176	0.630495	-0.005259	-0.630472	0.776193	0.005368	0.007467	-0.000850	0.999972	
6133														0.072916	0.005160	9.790284	0.776178	0.630492	-0.005292	-0.630469	0.776196	0.005367	0.007491	-0.000830	0.999972	
6134														0.072501	-0.018947	9.765643	0.776122	0.630561	-0.005279	-0.630539	0.776139	0.005355	0.007474	-0.000828	0.999972	
6135														0.048089	-0.018699	9.765885	0.776124	0.630558	-0.005289	-0.630536	0.776141	0.005357	0.007483	-0.000822	0.999972	
6136														0.073003	0.029876	9.766100	0.776081	0.630611	-0.005276	-0.630589	0.776099	0.005343	0.007464	-0.000820	0.999972	
6137														0.047850	-0.018468	9.741474	0.776083	0.630608	-0.005287	-0.630586	0.776101	0.005345	0.007474	-0.000815	0.999972	
6138														0.072892	-0.019180	9.790053	0.776063	0.630633	-0.005298	-0.630610	0.776081	0.005350	0.007486	-0.000811	0.999972	
6139														0.048734	0.005406	9.790525	0.776057	0.630641	-0.005275	-0.630619	0.776074	0.005345	0.007465	-0.000821	0.999972	
6140														0.072652	-0.019024	9.765641	0.775998	0.630713	-0.005294	-0.630691	0.776016	0.005340	0.007476	-0.000805	0.999972	
6141														0.048567	0.005563	9.766113	0.776001	0.630710	-0.005274	-0.630687	0.776018	0.005355	0.007470	-0.000830	0.999972	
6142														0.072725	-0.019323	9.765640	0.775945	0.630778	-0.005263	-0.630756	0.775963	0.005364	0.007467	-0.000843	0.999972	
6143														0.073219	0.004782	9.790282	0.775948	0.630775	-0.005262	-0.630753	0.775965	0.005356	0.007461	-0.000837	0.999972	
6144														0.048958	0.005032	9.790524	0.775916	0.630814	-0.005284	-0.630792	0.775934	0.005371	0.007488	-0.000835	0.999972	
6145														0.073521	0.004779	9.790279	0.775928	0.630799	-0.005283	-0.630777	0.775946	0.005363	0.007482	-0.000829	0.999972	
6146														0.073280	0.005085	9.765868	0.775880	0.630858	-0.005291	-0.630836	0.775898	0.005347	0.007478	-0.000811	0.999972	
6147														0.073522	0.004928	9.790279	0.775863	0.630879	-0.005290	-0.630857	0.775881	0.005339	0.007472	-0.000805	0.999972	
6148														0.073189	0.005539	9.741455	0.775846	0.630900	-0.005331	-0.630878	0.775864	0.005329	0.007498	-0.000772	0.999972	
6149														0.073176	-0.019179	9.765637	0.775839	0.630909	-0.005277	-0.630887	0.775857	0.005337	0.007462	-0.000812	0.999972	
6150														0.048870	0.005263	9.766112	0.775793	0.630965	-0.005275	-0.630943	0.775811	0.005334	0.007458	-0.000810	0.999972	
6151														0.073114	0.005167	9.741455	0.775786	0.630974	-0.005276	-0.630952	0.775804	0.005348	0.007468	-0.000819	0.999972	
6152														0.048447	-0.019065	9.741470	0.775734	0.631038	-0.005262	-0.631016	0.775752	0.005335	0.007449	-0.000819	0.999972	
6153														0.049020	0.005039	9.766111	0.775746	0.631023	-0.005275	-0.631001	0.775764	0.005359	0.007473	-0.000829	0.999972	
6154														0.073656	0.004708	9.765865	0.775698	0.631082	-0.005285	-0.631059	0.775716	0.005365	0.007486	-0.000827	0.999972	
6155														0.073731	0.004707	9.765864	0.775701	0.631079	-0.005284	-0.631056	0.775719	0.005357	0.007480	-0.000821	0.999972	
6156														0.049969	0.028991	9.790751	0.775634	0.631160	-0.005286	-0.631138	0.775652	0.005397	0.007507	-0.000850	0.999971	
6157														0.073676	-0.019697	9.741218	0.775646	0.631145	-0.005319	-0.631123	0.775664	0.005397	0.007532	-0.000829	0.999971	
6158														0.049746	0.005043	9.741694	0.775601	0.631201	-0.005330	-0.631179	0.775618	0.005402	0.007544	-0.000825	0.999971	
6159														0.050126	-0.019836	9.790286	0.775593	0.631210	-0.005341	-0.631188	0.775611	0.005403	0.007553	-0.000820	0.999971	
6160														0.074442	-0.019859	9.765626	0.775553	0.631260	-0.005353	-0.631237	0.775571	0.005409	0.007566	-0.000816	0.999971	
6161														0.074701	0.004552	9.765857	0.775555	0.631257	-0.005340	-0.631234	0.775573	0.005391	0.007545	-0.000810	0.999971	
6162														0.050685	0.004574	9.790516	0.775511	0.631311	-0.005374	-0.631288	0.775529	0.005416	0.007587	-0.000808	0.999971	
6163														0.074815	-0.019862	9.765623	0.775494	0.631332	-0.005373	-0.631309	0.775513	0.005408	0.007581	-0.000802	0.999971	
6164														0.050342	0.004966	9.741691	0.775447	0.631390	-0.005348	-0.631367	0.775465	0.005405	0.007560	-0.000815	0.999971	
6165														0.050514	0.004733	9.766104	0.775450	0.631386	-0.005357	-0.631364	0.775468	0.005385	0.007554	-0.000794	0.999971	
6166														0.074927	0.004625	9.765855	0.775405	0.631441	-0.005365	-0.631419	0.775423	0.005369	0.007550	-0.000776	0.999971	
6167														0.050011	-0.019222	9.741461	0.775405	0.631441	-0.005365	-0.631419	0.775423	0.005369	0.007550	-0.000776	0.999971	
6168														0.050516	0.004882	9.766103	0.775369	0.631486	-0.005353	-0.631463	0.775387	0.005376	0.007546	-0.000788	0.999971	
6169														0.050271	0.005041	9.741692	0.775371	0.631483	-0.005352	-0.631460	0.775390	0.005368	0.007540	-0.000782	0.999971	
6170														0.074989	-0.020097	9.790036	0.775347	0.631513	-0.005363	-0.631491	0.775365	0.005373	0.007552	-0.000780	0.999971	
6171														0.075326	0.004314	9.790266	0.775349	0.631510	-0.005362	-0.631488	0.775367	0.005366	0.007546	-0.000774	0.999971	
6172														0.050803	-0.019839	9.790283	0.775303	0.631567	-0.005383	-0.631544	0.775321	0.005381	0.007571	-0.000772	0.999971	
6173														0.050893	0.004731	9.766102	0.775296	0.631575	-0.005360	-0.631553	0.775314	0.005375	0.007550	-0.000782	0.999971	
6174														0.050892	0.004507	9.766102	0.775234	0.631651	-0.005350	-0.631629	0.775252	0.005405	0.007562	-0.000811	0.999971	
6175														0.051025	-0.020289	9.790281	0.775227	0.631660	-0.005361	-0.631638	0.775245	0.005407	0.007571	-0.000806	0.999971	
6176														0.051304	0.028843	9.766333	0.775197	0.631697	-0.005358	-0.631674	0.775215	0.005381	0.007552	-0.000787	0.999971	
6177														0.050384	-0.019670	9.741458	0.775200	0.631694	-0.005345	-0.631671	0.775218	0.005363	0.007531	-0.000781	0.999971	
6178														0.075306	0.004246	9.765853	0.775158	0.631745	-0.005354	-0.631723	0.775176	0.005368	0.007542	-0.000779	0.999971	
6179														0.075307	0.004320	9.765852	0.775151	0.631754	-0.005351	-0.631732	0.775169	0.005339	0.007521	-0.000758	0.999971	
6180														0.074986	0.004480	9.741441	0.775110	0.631804	-0.005331	-0.631782	0.775128	0.005358	0.007517	-0.000785	0.999971	
6181														0.050970	0.004432	9.766101	0.775112	0.631801	-0.005363	-0.631779	0.775130	0.005358	0.007542	-0.000764	0.999971	
6182														0.051178	-0.020066	9.790280	0.775070	0.631853	-0.005383	-0.631831	0.775088	0.005351	0.007553	-0.000746	0.999971	
6183														0.051593	0.004420	9.790511	0.775062	0.631862	-0.005393	-0.631839	0.775081	0.005353	0.007562	-0.000741	0.999971	
6184														0.075831	0.004390	9.765848	0.775016	0.631918	-0.005391	-0.631896	0.775035	0.005348	0.007558	-0.000739	0.999971	
6185														0.051230	-0.019759	9.765867	0.775009	0.631927	-0.005401	-0.631905	0.775028	0.005350	0.007567	-0.000733	0.999971	
6186														0.075393	-0.019788	9.741205	0.774971	0.631974	-0.005388	-0.631952	0.774989	0.005335	0.007548	-0.000729	0.999971	
6187														0.027258	0.004683	9.790761	0.774974	0.631971	-0.005387	-0.631949	0.774992	0.005327	0.007542	-0.000724	0.999971	
6188														0.075376	-0.044360	9.765386	0.774924	0.632032	-0.005408	-0.632010	0.774942	0.005320	0.007554	-0.000705	0.999971	
6189														0.076231	0.004155	9.790259	0.774917	0.632041	-0.005388	-0.632019	0.774935	0.005336	0.007548	-0.000730	0.999971	
6190														0.075393	-0.019863	9.741205	0.774862	0.632108	-0.005385	-0.632086	0.774880	0.005311	0.007530	-0.000711	0.999971	
6191														0.051231	-0.019759	9.765867	0.774874	0.632093	-0.005396	-0.632071	0.774892	0.005313	0.007539	-0.000706	0.999971	
6192														0.051647	0.004577	9.766098	0.774839	0.632135	-0.005397	-0.632113	0.774858	0.005328	0.007550	-0.000717	0.999971	
6193														0.027310	0.004767	9.766349	0.774839	0.632135	-0.005397	-0.632113	0.774858	0.005328	0.007550	-0.000717	0.999971	
6194														0.076132	0.004163	9.765846	0.774788	0.632199	-0.005384	-0.632177	0.774806	0.005335	0.007544	-0.000730	0.999971	
6195														0.075939	-0.020398	9.765614	0.774800	0.632184	-0.005385	-0.632162	0.774818	0.005349	0.007554	-0.000740	0.999971	
6196														0.051872	0.004352	9.766097	0.774761	0.632231	-0.005404	-0.632209	0.774779	0.005320	0.007550	-0.000705	0.999971	
6197														0.051873	0.004427	9.766097	0.774763	0.632228	-0.005393	-0.632206	0.774782	0.005324	0.007544	-0.000715	0.999971	
6198														0.076190	-0.020634	9.790025	0.774720	0.632281	-0.005369	-0.632259	0.774739	0.005321	0.007524	-0.000728	0.999971	
6199														0.051724	0.004130	9.766097	0.774723	0.632278	-0.005359	-0.632256	0.774741	0.005325	0.007518	-0.000737	0.999971	
6200														0.075866	-0.020624	9.765614	0.774678	0.632333	-0.005356	-0.632311	0.774696	0.005321	0.007514	-0.000735	0.999972	
6201														0.076211	0.003787	9.765846	0.774690	0.632318	-0.005367	-0.632296	0.774708	0.005322	0.007523	-0.000730	0.999971	
6202														0.052071	0.028466	9.766330	0.774629	0.632393	-0.005354	-0.632371	0.774647	0.005308	0.007504	-0.000726	0.999972	
6203														0.052198	0.003744	9.790508	0.774641	0.632378	-0.005378	-0.632356	0.774659	0.005341	0.007544	-0.000736	0.999971	
6204														0.076759	0.003325	9.790255	0.774593	0.632437	-0.005355	-0.632415	0.774612	0.005337	0.007524	-0.000748	0.999971	
6205														0.052247	0.003754	9.766095	0.774586	0.632446	-0.005389	-0.632423	0.774604	0.005359	0.007563	-0.000742	0.999971	
6206														0.077011	-0.021164	9.790018	0.774547	0.632493	-0.005413	-0.632471	0.774566	0.005373	0.007591	-0.000738	0.999971	
6207														0.052518	0.003987	9.741680	0.774547	0.632493	-0.005413	-0.632471	0.774566	0.005373	0.007591	-0.000738	0.999971	
6208														0.077106	0.003408	9.765839	0.774496	0.632555	-0.005388	-0.632533	0.774515	0.005371	0.007571	-0.000752	0.999971	
6209														0.052193	0.004149	9.717269	0.774499	0.632552	-0.005409	-0.632530	0.774517	0.005361	0.007581	-0.000731	0.999971	
6210														0.052948	0.003515	9.790504	0.774456	0.632605	-0.005395	-0.632583	0.774474	0.005347	0.007560	-0.000728	0.999971	
6211														0.052948	0.003590	9.790504	0.774448	0.632614	-0.005415	-0.632592	0.774467	0.005337	0.007570	-0.000707	0.999971	
6212														0.077006	0.003791	9.741426	0.774394	0.632681	-0.005415	-0.632659	0.774412	0.005353	0.007580	-0.000720	0.999971	
6213														0.052670	0.004061	9.741680	0.774406	0.632666	-0.005424	-0.632644	0.774424	0.005334	0.007575	-0.000699	0.999971	
6214														0.077312	-0.021094	9.790015	0.774365	0.632716	-0.005413	-0.632694	0.774383	0.005341	0.007571	-0.000711	0.999971	
6215														0.077409	0.003553	9.765836	0.774357	0.632725	-0.005434	-0.632703	0.774376	0.005331	0.007580	-0.000690	0.999971	
6216														0.052894	0.003985	9.741678	0.774313	0.632780	-0.005423	-0.632757	0.774332	0.005357	0.007589	-0.000717	0.999971	
6217														0.077610	-0.021320	9.790013	0.774315	0.632777	-0.005422	-0.632754	0.774334	0.005349	0.007583	-0.000711	0.999971	
6218														0.053022	-0.020813	9.765856	0.774269	0.632833	-0.005431	-0.632811	0.774288	0.005354	0.007594	-0.000709	0.999971	
6219														0.053044	0.003910	9.741678	0.774262	0.632841	-0.005428	-0.632819	0.774281	0.005325	0.007573	-0.000688	0.999971	
6220														0.053221	0.003599	9.766090	0.774198	0.632921	-0.005407	-0.632898	0.774216	0.005344	0.007568	-0.000715	0.999971	
6221														0.078012	-0.021707	9.814423	0.774200	0.632918	-0.005429	-0.632895	0.774219	0.005355	0.007593	-0.000710	0.999971	
6222														0.053518	0.003300	9.766088	0.774151	0.632978	-0.005407	-0.632956	0.774169	0.005373	0.007587	-0.000737	0.999971	
6223														0.053845	0.002838	9.790499	0.774153	0.632975	-0.005408	-0.632953	0.774172	0.005387	0.007596	-0.000747	0.999971	
6224														0.078077	0.002654	9.765831	0.774119	0.633017	-0.005396	-0.632995	0.774137	0.005392	0.007591	-0.000758	0.999971	
6225														0.053920	0.002613	9.790499	0.774131	0.633002	-0.005395	-0.632980	0.774150	0.005384	0.007585	-0.000753	0.999971	
6226														0.077803	-0.021759	9.765596	0.774085	0.633059	-0.005404	-0.633036	0.774103	0.005367	0.007581	-0.000733	0.999971	
6227														0.053766	0.027575	9.741911	0.774097	0.633044	-0.005406	-0.633021	0.774116	0.005380	0.007591	-0.000743	0.999971	
6228														0.054071	0.002463	9.790498	0.774036	0.633118	-0.005384	-0.633096	0.774055	0.005399	0.007586	-0.000770	0.999971	
6229														0.053540	-0.021784	9.765851	0.774039	0.633115	-0.005393	-0.633093	0.774057	0.005379	0.007580	-0.000749	0.999971	
6230														0.053795	-0.021949	9.790262	0.773989	0.633176	-0.005392	-0.633153	0.774008	0.005382	0.007582	-0.000752	0.999971	
6231														0.078408	0.002189	9.790242	0.774002	0.633161	-0.005380	-0.633138	0.774020	0.005365	0.007561	-0.000746	0.999971	
6232														0.053744	0.002702	9.766087	0.773940	0.633236	-0.005390	-0.633214	0.773958	0.005369	0.007572	-0.000742	0.999971	
6233														0.053870	-0.021874	9.790262	0.773942	0.633233	-0.005411	-0.633211	0.773961	0.005359	0.007582	-0.000722	0.999971	
6234														0.078103	-0.021911	9.765593	0.773913	0.633269	-0.005399	-0.633246	0.773932	0.005365	0.007576	-0.000733	0.999971	
6235														0.053640	0.002865	9.741675	0.773906	0.633277	-0.005376	-0.633255	0.773925	0.005359	0.007555	-0.000743	0.999971	
6236														0.054149	0.002387	9.790498	0.773873	0.633318	-0.005396	-0.633296	0.773891	0.005352	0.007565	-0.000725	0.999971	
6237														0.053717	0.002939	9.741674	0.773875	0.633315	-0.005395	-0.633293	0.773894	0.005344	0.007559	-0.000719	0.999971	
6238														0.053947	-0.021950	9.790262	0.773831	0.633370	-0.005394	-0.633348	0.773849	0.005347	0.007561	-0.000721	0.999971	
6239														0.078637	0.002035	9.790241	0.773833	0.633367	-0.005374	-0.633344	0.773851	0.005362	0.007555	-0.000746	0.999971	
6240														0.053766	-0.022009	9.765849	0.773779	0.633432	-0.005383	-0.633410	0.773798	0.005367	0.007565	-0.000743	0.999971	
6241														0.078606	0.002199	9.765827	0.773772	0.633441	-0.005403	-0.633419	0.773791	0.005357	0.007574	-0.000723	0.999971	
6242														0.053941	0.002789	9.741673	0.773736	0.633485	-0.005390	-0.633463	0.773755	0.005341	0.007554	-0.000718	0.999971	
6243														0.054097	-0.021951	9.790261	0.773739	0.633482	-0.005409	-0.633460	0.773757	0.005310	0.007549	-0.000682	0.999971	
6244														0.053843	-0.021712	9.765849	0.773694	0.633536	-0.005387	-0.633514	0.773713	0.005328	0.007544	-0.000709	0.999971	
6245														0.078609	0.002346	9.765827	0.773687	0.633545	-0.005408	-0.633523	0.773706	0.005318	0.007553	-0.000689	0.999971	
6246														0.054173	-0.021951	9.790260	0.773643	0.633599	-0.005395	-0.633577	0.773662	0.005304	0.007534	-0.000685	0.999971	
6247														0.054125	0.002699	9.766085	0.773655	0.633584	-0.005394	-0.633562	0.773674	0.005296	0.007528	-0.000680	0.999971	
6248														0.078255	-0.022066	9.765592	0.773612	0.633637	-0.005383	-0.633615	0.773630	0.005303	0.007525	-0.000691	0.999971	
6249														0.078867	0.002031	9.790239	0.773614	0.633634	-0.005394	-0.633612	0.773633	0.005305	0.007534	-0.000686	0.999971	
6250														0.053919	-0.021862	9.765848	0.773560	0.633700	-0.005380	-0.633678	0.773579	0.005288	0.007513	-0.000681	0.999972	
6251														0.054382	0.002311	9.790497	0.773582	0.633673	-0.005379	-0.633652	0.773600	0.005280	0.007508	-0.000676	0.999972	
6252														0.078360	0.002582	9.741416	0.773526	0.633741	-0.005399	-0.633719	0.773545	0.005273	0.007518	-0.000658	0.999972	
6253														0.079274	0.001864	9.814649	0.773529	0.633738	-0.005400	-0.633716	0.773547	0.005287	0.007527	-0.000668	0.999971	
6254														0.054218	-0.021938	9.765847	0.773484	0.633793	-0.005399	-0.633771	0.773503	0.005303	0.007537	-0.000680	0.999971	
6255														0.054111	-0.021700	9.741434	0.773477	0.633801	-0.005419	-0.633780	0.773496	0.005293	0.007546	-0.000659	0.999971	
6256														0.054442	-0.021865	9.765845	0.773438	0.633849	-0.005417	-0.633827	0.773456	0.005287	0.007540	-0.000656	0.999971	
6257														0.054471	0.002860	9.741670	0.773431	0.633858	-0.005425	-0.633836	0.773449	0.005267	0.007535	-0.000635	0.999971	
6258														0.079470	0.002174	9.790234	0.773393	0.633904	-0.005437	-0.633883	0.773411	0.005271	0.007546	-0.000630	0.999971	
6259														0.054593	-0.021717	9.765845	0.773395	0.633901	-0.005436	-0.633880	0.773414	0.005263	0.007540	-0.000625	0.999971	
6260														0.054952	0.002619	9.766080	0.773345	0.633962	-0.005436	-0.633941	0.773364	0.005279	0.007551	-0.000637	0.999971	
6261														0.079513	0.002336	9.765820	0.773347	0.633959	-0.005456	-0.633938	0.773366	0.005269	0.007560	-0.000616	0.999971	
6262														0.055251	0.002618	9.766079	0.773306	0.634010	-0.005456	-0.633988	0.773325	0.005285	0.007570	-0.000628	0.999971	
6263														0.055069	0.002856	9.741667	0.773298	0.634019	-0.005465	-0.633997	0.773317	0.005265	0.007564	-0.000607	0.999971	
6264														0.055659	0.002378	9.790489	0.773268	0.634056	-0.005465	-0.634034	0.773287	0.005279	0.007573	-0.000617	0.999971	
6265														0.079750	-0.022154	9.765579	0.773280	0.634041	-0.005488	-0.634019	0.773299	0.005291	0.007598	-0.000612	0.999971	
