// Start Time: Unknown: 
// Update Rate: 60.0Hz 
// Filter Profile: human (46.1) 
// Firmware Version: 4.6.0
PacketCounter	SampleTimeFine	Year	Month	Day	Second	UTC_Nano	UTC_Year	UTC_Month	UTC_Day	UTC_Hour	UTC_Minute	UTC_Second	UTC_Valid	Acc_X	Acc_Y	Acc_Z	Mat[1][1]	Mat[2][1]	Mat[3][1]	Mat[1][2]	Mat[2][2]	Mat[3][2]	Mat[1][3]	Mat[2][3]	Mat[3][3] 
3598														-0.124197	0.003545	9.786615	-0.797053	0.603824	-0.010102	-0.603788	-0.797117	-0.006695	-0.012094	0.000763	0.999927	
3599														-0.109371	0.003971	9.757445	-0.797062	0.603814	-0.010090	-0.603777	-0.797125	-0.006688	-0.012082	0.000762	0.999927	
3600														-0.094757	0.004787	9.742918	-0.797052	0.603827	-0.010113	-0.603790	-0.797115	-0.006689	-0.012100	0.000775	0.999926	
3601														-0.124365	0.004321	9.771966	-0.797060	0.603816	-0.010099	-0.603780	-0.797123	-0.006661	-0.012072	0.000788	0.999927	
3602														-0.109954	0.005923	9.786729	-0.797059	0.603816	-0.010131	-0.603780	-0.797123	-0.006650	-0.012090	0.000817	0.999927	
3603														-0.125291	0.019823	9.771639	-0.797058	0.603818	-0.010098	-0.603782	-0.797122	-0.006645	-0.012062	0.000800	0.999927	
3604														-0.110599	0.020494	9.757113	-0.797067	0.603807	-0.010111	-0.603770	-0.797130	-0.006658	-0.012080	0.000798	0.999927	
3605														-0.124665	0.005629	9.771962	-0.797066	0.603808	-0.010078	-0.603772	-0.797129	-0.006654	-0.012051	0.000782	0.999927	
3606														-0.110534	0.020608	9.742467	-0.797065	0.603810	-0.010079	-0.603773	-0.797128	-0.006657	-0.012054	0.000780	0.999927	
3607														-0.125163	0.006772	9.801247	-0.797055	0.603823	-0.010092	-0.603787	-0.797118	-0.006670	-0.012072	0.000777	0.999927	
3608														-0.109360	-0.007991	9.743116	-0.797063	0.603812	-0.010090	-0.603776	-0.797126	-0.006651	-0.012059	0.000791	0.999927	
3609														-0.110617	0.008360	9.801366	-0.797052	0.603826	-0.010077	-0.603790	-0.797116	-0.006624	-0.012032	0.000805	0.999927	
3610														-0.109366	-0.007182	9.743116	-0.797052	0.603827	-0.010090	-0.603791	-0.797115	-0.006636	-0.012050	0.000803	0.999927	
3611														-0.125341	0.007439	9.771952	-0.797050	0.603829	-0.010084	-0.603792	-0.797114	-0.006673	-0.012067	0.000770	0.999927	
3612														-0.110934	0.008359	9.772071	-0.797049	0.603830	-0.010084	-0.603794	-0.797113	-0.006676	-0.012069	0.000768	0.999927	
3613														-0.125848	0.008186	9.786591	-0.797058	0.603819	-0.010085	-0.603782	-0.797121	-0.006679	-0.012072	0.000765	0.999927	
3614														-0.114728	0.005093	9.775780	-0.797052	0.603826	-0.010092	-0.603790	-0.797116	-0.006687	-0.012082	0.000763	0.999927	
3615														-0.103607	0.001999	9.764969	-0.797047	0.603833	-0.010099	-0.603797	-0.797110	-0.006695	-0.012092	0.000761	0.999927	
3616														-0.111175	-0.004466	9.801680	-0.797064	0.603811	-0.010099	-0.603774	-0.797127	-0.006698	-0.012094	0.000759	0.999927	
3617														-0.126448	0.009414	9.786582	-0.797054	0.603824	-0.010086	-0.603788	-0.797117	-0.006670	-0.012067	0.000773	0.999927	
3618														-0.126092	0.008985	9.757295	-0.797053	0.603826	-0.010055	-0.603789	-0.797116	-0.006688	-0.012053	0.000741	0.999927	
3619														-0.110957	-0.003981	9.787037	-0.797052	0.603828	-0.010054	-0.603791	-0.797115	-0.006670	-0.012041	0.000754	0.999927	
3620														-0.097845	0.026173	9.771849	-0.797060	0.603816	-0.010064	-0.603780	-0.797123	-0.006661	-0.012044	0.000768	0.999927	
3621														-0.111757	0.011048	9.772058	-0.797059	0.603818	-0.010044	-0.603782	-0.797122	-0.006666	-0.012031	0.000751	0.999927	
3622														-0.125808	-0.003752	9.786912	-0.797058	0.603819	-0.010054	-0.603783	-0.797121	-0.006657	-0.012034	0.000765	0.999927	
3623														-0.111192	-0.002920	9.772389	-0.797048	0.603833	-0.010055	-0.603796	-0.797111	-0.006660	-0.012037	0.000763	0.999927	
3624														-0.126547	0.010945	9.757287	-0.797056	0.603822	-0.010054	-0.603786	-0.797119	-0.006642	-0.012025	0.000776	0.999927	
3625														-0.141464	0.010836	9.771806	-0.797073	0.603799	-0.010066	-0.603763	-0.797136	-0.006654	-0.012042	0.000774	0.999927	
3626														-0.111856	-0.001578	9.787027	-0.797053	0.603825	-0.010079	-0.603788	-0.797117	-0.006667	-0.012060	0.000772	0.999927	
3627														-0.112735	0.013004	9.772045	-0.797061	0.603814	-0.010080	-0.603778	-0.797125	-0.006670	-0.012063	0.000770	0.999927	
3628														-0.113027	0.013622	9.786687	-0.797060	0.603816	-0.010081	-0.603779	-0.797124	-0.006673	-0.012065	0.000768	0.999927	
3629														-0.113036	0.013656	9.772040	-0.797059	0.603817	-0.010091	-0.603780	-0.797123	-0.006665	-0.012068	0.000780	0.999927	
3630														-0.111372	-0.015479	9.758070	-0.797058	0.603818	-0.010089	-0.603782	-0.797122	-0.006647	-0.012056	0.000794	0.999927	
3631														-0.112251	-0.000417	9.757732	-0.797057	0.603820	-0.010100	-0.603784	-0.797121	-0.006638	-0.012059	0.000807	0.999927	
3632														-0.113343	0.014751	9.772035	-0.797056	0.603821	-0.010082	-0.603785	-0.797120	-0.006664	-0.012060	0.000775	0.999927	
3633														-0.113198	0.014637	9.757391	-0.797064	0.603810	-0.010068	-0.603774	-0.797128	-0.006636	-0.012033	0.000790	0.999927	
3634														-0.128777	0.028739	9.756925	-0.797073	0.603799	-0.010083	-0.603763	-0.797136	-0.006670	-0.012065	0.000772	0.999927	
3635														-0.098283	0.001731	9.772495	-0.797062	0.603813	-0.010082	-0.603777	-0.797126	-0.006652	-0.012053	0.000786	0.999927	
3636														-0.113792	0.015910	9.772028	-0.797071	0.603802	-0.010083	-0.603766	-0.797134	-0.006655	-0.012056	0.000784	0.999927	
3637														-0.112915	0.001245	9.757724	-0.797060	0.603816	-0.010072	-0.603780	-0.797124	-0.006648	-0.012043	0.000782	0.999927	
3638														-0.113348	0.002052	9.787010	-0.797068	0.603805	-0.010066	-0.603769	-0.797132	-0.006685	-0.012060	0.000749	0.999927	
3639														-0.113570	0.001851	9.772362	-0.797077	0.603794	-0.010090	-0.603757	-0.797140	-0.006707	-0.012093	0.000746	0.999927	
3640														-0.128938	0.015688	9.757249	-0.797085	0.603783	-0.010065	-0.603747	-0.797148	-0.006670	-0.012050	0.000760	0.999927	
3641														-0.114460	0.017205	9.772018	-0.797084	0.603785	-0.010077	-0.603748	-0.797147	-0.006682	-0.012068	0.000758	0.999927	
3642														-0.128351	0.001790	9.757588	-0.797092	0.603774	-0.010088	-0.603737	-0.797155	-0.006673	-0.012071	0.000771	0.999927	
3643														-0.114760	0.017856	9.772014	-0.797100	0.603763	-0.010067	-0.603727	-0.797163	-0.006679	-0.012057	0.000754	0.999927	
3644														-0.113195	-0.011247	9.772700	-0.797200	0.603633	-0.009976	-0.603598	-0.797262	-0.006563	-0.011915	0.000790	0.999929	
3645														-0.128639	0.002504	9.757584	-0.797199	0.603634	-0.009986	-0.603599	-0.797261	-0.006554	-0.011918	0.000803	0.999929	
3646														-0.099678	0.005041	9.787125	-0.797211	0.603619	-0.009944	-0.603584	-0.797272	-0.006561	-0.011889	0.000772	0.999929	
3647														-0.114515	0.005112	9.816287	-0.797227	0.603598	-0.009943	-0.603563	-0.797289	-0.006542	-0.011876	0.000786	0.999929	
3648														-0.114528	0.018607	9.757369	-0.797226	0.603601	-0.009877	-0.603566	-0.797286	-0.006530	-0.011816	0.000755	0.999930	
3649														-0.098855	0.004620	9.743197	-0.797247	0.603572	-0.009889	-0.603537	-0.797308	-0.006542	-0.011833	0.000753	0.999930	
3650														-0.113457	-0.009264	9.801990	-0.797232	0.603592	-0.009880	-0.603557	-0.797293	-0.006557	-0.011836	0.000736	0.999930	
3651														-0.113844	0.004561	9.757712	-0.797232	0.603593	-0.009858	-0.603558	-0.797292	-0.006541	-0.011808	0.000735	0.999930	
3652														-0.100338	0.020909	9.786779	-0.797216	0.603614	-0.009849	-0.603579	-0.797277	-0.006557	-0.011810	0.000718	0.999930	
3653														-0.099514	0.006240	9.772481	-0.797226	0.603601	-0.009859	-0.603566	-0.797286	-0.006547	-0.011813	0.000731	0.999930	
3654														-0.113995	0.005509	9.757710	-0.797233	0.603592	-0.009846	-0.603557	-0.797293	-0.006519	-0.011785	0.000745	0.999930	
3655														-0.114755	0.020153	9.742717	-0.797250	0.603569	-0.009858	-0.603534	-0.797310	-0.006531	-0.011802	0.000743	0.999930	
3656														-0.114804	0.007105	9.801637	-0.797239	0.603583	-0.009861	-0.603548	-0.797300	-0.006556	-0.011819	0.000725	0.999930	
3657														-0.113238	-0.009348	9.714121	-0.797239	0.603583	-0.009850	-0.603548	-0.797300	-0.006549	-0.011806	0.000724	0.999930	
3658														-0.129208	0.005674	9.757575	-0.797248	0.603571	-0.009841	-0.603536	-0.797309	-0.006564	-0.011808	0.000707	0.999930	
3659														-0.086909	0.024467	9.816180	-0.797258	0.603558	-0.009852	-0.603523	-0.797319	-0.006555	-0.011811	0.000720	0.999930	
3660														-0.115720	0.021782	9.757348	-0.797248	0.603572	-0.009853	-0.603537	-0.797308	-0.006558	-0.011814	0.000718	0.999930	
3661														-0.099350	-0.006942	9.728887	-0.797269	0.603544	-0.009874	-0.603509	-0.797329	-0.006558	-0.011831	0.000731	0.999930	
3662														-0.114638	-0.006469	9.772688	-0.797268	0.603544	-0.009866	-0.603509	-0.797329	-0.006573	-0.011833	0.000714	0.999930	
3663														-0.102607	0.038377	9.771760	-0.797268	0.603545	-0.009845	-0.603509	-0.797329	-0.006578	-0.011820	0.000697	0.999930	
3664														-0.114704	-0.006531	9.758042	-0.797256	0.603561	-0.009848	-0.603525	-0.797316	-0.006602	-0.011837	0.000680	0.999930	
3665														-0.100456	-0.004556	9.787457	-0.797262	0.603554	-0.009854	-0.603518	-0.797322	-0.006550	-0.011810	0.000725	0.999930	
3666														-0.129334	-0.006569	9.757914	-0.797241	0.603581	-0.009824	-0.603546	-0.797301	-0.006567	-0.011797	0.000693	0.999930	
3667														-0.116914	0.024198	9.786621	-0.797241	0.603581	-0.009829	-0.603545	-0.797301	-0.006613	-0.011828	0.000660	0.999930	
3668														-0.101044	-0.003711	9.802096	-0.797238	0.603586	-0.009830	-0.603550	-0.797298	-0.006616	-0.011831	0.000658	0.999930	
3669														-0.115914	0.008619	9.728394	-0.797246	0.603574	-0.009831	-0.603538	-0.797307	-0.006619	-0.011833	0.000656	0.999930	
3670														-0.117435	0.024562	9.771967	-0.797245	0.603576	-0.009843	-0.603540	-0.797305	-0.006631	-0.011851	0.000654	0.999930	
3671														-0.116339	-0.003200	9.816605	-0.797273	0.603539	-0.009851	-0.603503	-0.797333	-0.006600	-0.011838	0.000683	0.999930	
3672														-0.102106	0.011301	9.772449	-0.797282	0.603528	-0.009792	-0.603491	-0.797342	-0.006653	-0.011823	0.000605	0.999930	
3673														-0.116717	0.010015	9.757674	-0.797281	0.603528	-0.009804	-0.603492	-0.797342	-0.006665	-0.011840	0.000603	0.999930	
3674														-0.117396	0.011418	9.801602	-0.797271	0.603542	-0.009814	-0.603506	-0.797331	-0.006656	-0.011843	0.000616	0.999930	
3675														-0.118101	0.025705	9.771956	-0.797287	0.603521	-0.009815	-0.603484	-0.797347	-0.006659	-0.011845	0.000614	0.999930	
3676														-0.131232	-0.004182	9.772535	-0.797295	0.603511	-0.009818	-0.603474	-0.797355	-0.006683	-0.011862	0.000596	0.999929	
3677														-0.102286	-0.001825	9.787439	-0.797293	0.603512	-0.009816	-0.603476	-0.797353	-0.006664	-0.011849	0.000610	0.999930	
3678														-0.117692	0.011950	9.772306	-0.797292	0.603514	-0.009817	-0.603477	-0.797352	-0.006667	-0.011851	0.000609	0.999930	
3679														-0.117913	0.012366	9.786949	-0.797291	0.603516	-0.009777	-0.603480	-0.797350	-0.006696	-0.011837	0.000562	0.999930	
3680														-0.103055	0.012599	9.757792	-0.797290	0.603517	-0.009778	-0.603480	-0.797350	-0.006699	-0.011839	0.000560	0.999930	
3681														-0.132373	0.010807	9.742883	-0.797271	0.603542	-0.009791	-0.603505	-0.797331	-0.006712	-0.011857	0.000558	0.999930	
3682														-0.102502	-0.001216	9.758147	-0.797262	0.603554	-0.009796	-0.603518	-0.797322	-0.006660	-0.011830	0.000603	0.999930	
3683														-0.118449	0.013751	9.786940	-0.797270	0.603543	-0.009821	-0.603506	-0.797330	-0.006682	-0.011863	0.000600	0.999929	
3684														-0.118445	0.013407	9.757649	-0.797250	0.603569	-0.009832	-0.603532	-0.797311	-0.006673	-0.011866	0.000614	0.999929	
3685														-0.104280	0.014988	9.772421	-0.797239	0.603583	-0.009856	-0.603546	-0.797300	-0.006695	-0.011899	0.000611	0.999929	
3686														-0.119439	0.015187	9.801572	-0.797230	0.603595	-0.009855	-0.603558	-0.797291	-0.006677	-0.011887	0.000625	0.999929	
3687														-0.132882	-0.000999	9.757868	-0.797239	0.603583	-0.009867	-0.603546	-0.797300	-0.006689	-0.011904	0.000623	0.999929	
3688														-0.104801	0.015571	9.757769	-0.797248	0.603572	-0.009870	-0.603535	-0.797308	-0.006713	-0.011921	0.000606	0.999929	
3689														-0.117831	-0.014323	9.758359	-0.797229	0.603597	-0.009859	-0.603560	-0.797290	-0.006706	-0.011909	0.000604	0.999929	
3690														-0.118940	0.001374	9.787284	-0.797236	0.603587	-0.009846	-0.603550	-0.797297	-0.006678	-0.011881	0.000619	0.999929	
3691														-0.119733	0.016002	9.772276	-0.797237	0.603586	-0.009858	-0.603549	-0.797298	-0.006690	-0.011898	0.000616	0.999929	
3692														-0.119957	0.016288	9.772272	-0.797245	0.603575	-0.009859	-0.603538	-0.797306	-0.006693	-0.011901	0.000614	0.999929	
3693														-0.120029	0.016503	9.772271	-0.797244	0.603577	-0.009839	-0.603540	-0.797305	-0.006698	-0.011888	0.000598	0.999929	
3694														-0.120104	0.016720	9.772270	-0.797233	0.603591	-0.009840	-0.603554	-0.797294	-0.006701	-0.011890	0.000596	0.999929	
3695														-0.120404	0.017078	9.772265	-0.797251	0.603567	-0.009874	-0.603530	-0.797312	-0.006711	-0.011923	0.000609	0.999929	
3696														-0.120622	0.017214	9.772263	-0.797260	0.603556	-0.009834	-0.603519	-0.797320	-0.006740	-0.011909	0.000561	0.999929	
3697														-0.105117	0.003549	9.772764	-0.797240	0.603582	-0.009823	-0.603545	-0.797300	-0.006733	-0.011896	0.000560	0.999929	
3698														-0.118936	-0.011586	9.772994	-0.797248	0.603571	-0.009833	-0.603534	-0.797309	-0.006724	-0.011899	0.000574	0.999929	
3699														-0.120040	0.003318	9.772625	-0.797239	0.603584	-0.009836	-0.603546	-0.797299	-0.006749	-0.011916	0.000557	0.999929	
3700														-0.105564	0.004344	9.772758	-0.797236	0.603587	-0.009816	-0.603550	-0.797297	-0.006754	-0.011903	0.000540	0.999929	
3701														-0.120183	0.003676	9.772623	-0.797236	0.603588	-0.009805	-0.603551	-0.797296	-0.006747	-0.011890	0.000539	0.999929	
3702														-0.106751	0.019754	9.787032	-0.797245	0.603577	-0.009808	-0.603539	-0.797305	-0.006771	-0.011907	0.000521	0.999929	
3703														-0.106975	0.020041	9.787029	-0.797243	0.603579	-0.009819	-0.603541	-0.797303	-0.006762	-0.011910	0.000535	0.999929	
3704														-0.135904	0.017909	9.757470	-0.797242	0.603581	-0.009796	-0.603543	-0.797302	-0.006746	-0.011882	0.000534	0.999929	
3705														-0.105029	-0.009478	9.758478	-0.797250	0.603570	-0.009791	-0.603532	-0.797310	-0.006803	-0.011913	0.000486	0.999929	
3706														-0.121721	0.018998	9.757600	-0.797240	0.603582	-0.009802	-0.603544	-0.797301	-0.006794	-0.011916	0.000499	0.999929	
3707														-0.121067	0.005180	9.772611	-0.797277	0.603534	-0.009800	-0.603496	-0.797337	-0.006775	-0.011902	0.000513	0.999929	
3708														-0.121142	0.005617	9.772610	-0.797285	0.603523	-0.009810	-0.603486	-0.797345	-0.006765	-0.011905	0.000526	0.999929	
3709														-0.106758	0.007242	9.787389	-0.797275	0.603536	-0.009799	-0.603499	-0.797335	-0.006759	-0.011892	0.000525	0.999929	
3710														-0.106908	0.007532	9.787387	-0.797284	0.603525	-0.009811	-0.603487	-0.797344	-0.006771	-0.011910	0.000523	0.999929	
3711														-0.106885	0.007090	9.758097	-0.797292	0.603513	-0.009824	-0.603476	-0.797353	-0.006783	-0.011927	0.000520	0.999929	
3712														-0.122709	0.021384	9.772228	-0.797281	0.603528	-0.009803	-0.603490	-0.797342	-0.006789	-0.011914	0.000504	0.999929	
3713														-0.121887	0.007058	9.772600	-0.797290	0.603516	-0.009813	-0.603478	-0.797351	-0.006780	-0.011916	0.000517	0.999929	
3714														-0.106357	-0.006731	9.758466	-0.797280	0.603530	-0.009805	-0.603492	-0.797340	-0.006794	-0.011919	0.000500	0.999929	
3715														-0.137195	0.007233	9.801743	-0.797297	0.603507	-0.009798	-0.603469	-0.797357	-0.006830	-0.011935	0.000467	0.999929	
3716														-0.106954	-0.006017	9.773105	-0.797296	0.603508	-0.009819	-0.603470	-0.797357	-0.006809	-0.011938	0.000496	0.999929	
3717														-0.123458	0.022749	9.772216	-0.797295	0.603510	-0.009808	-0.603471	-0.797356	-0.006802	-0.011926	0.000495	0.999929	
3718														-0.093788	0.010894	9.802152	-0.797286	0.603522	-0.009811	-0.603484	-0.797346	-0.006827	-0.011943	0.000478	0.999929	
3719														-0.122620	0.008346	9.757944	-0.797285	0.603523	-0.009807	-0.603485	-0.797345	-0.006787	-0.011916	0.000508	0.999929	
3720														-0.092875	-0.003351	9.787883	-0.797294	0.603512	-0.009810	-0.603474	-0.797354	-0.006811	-0.011933	0.000490	0.999929	
3721														-0.122026	-0.005248	9.772961	-0.797285	0.603524	-0.009797	-0.603486	-0.797345	-0.006783	-0.011905	0.000505	0.999929	
3722														-0.093695	0.011485	9.772863	-0.797292	0.603514	-0.009788	-0.603476	-0.797352	-0.006797	-0.011907	0.000487	0.999929	
3723														-0.109208	0.025034	9.757701	-0.797301	0.603502	-0.009789	-0.603464	-0.797361	-0.006800	-0.011909	0.000485	0.999929	
3724														-0.122080	-0.004820	9.758316	-0.797300	0.603504	-0.009777	-0.603466	-0.797360	-0.006793	-0.011896	0.000484	0.999929	
3725														-0.124140	0.025068	9.772201	-0.797309	0.603493	-0.009778	-0.603455	-0.797368	-0.006796	-0.011898	0.000482	0.999929	
3726														-0.123454	0.010813	9.772577	-0.797308	0.603493	-0.009800	-0.603455	-0.797368	-0.006796	-0.011916	0.000495	0.999929	
3727														-0.109387	0.012757	9.801999	-0.797308	0.603494	-0.009791	-0.603455	-0.797368	-0.006811	-0.011918	0.000478	0.999929	
3728														-0.124231	0.012126	9.801856	-0.797298	0.603507	-0.009814	-0.603468	-0.797358	-0.006812	-0.011936	0.000491	0.999929	
3729														-0.109329	0.011845	9.743421	-0.797306	0.603496	-0.009829	-0.603457	-0.797366	-0.006845	-0.011968	0.000474	0.999928	
3730														-0.109822	0.013251	9.787349	-0.797313	0.603486	-0.009792	-0.603448	-0.797373	-0.006798	-0.011910	0.000489	0.999929	
3731														-0.109345	0.012880	9.758064	-0.797331	0.603463	-0.009793	-0.603424	-0.797391	-0.006800	-0.011912	0.000487	0.999929	
3732														-0.124038	0.012246	9.757922	-0.797321	0.603477	-0.009782	-0.603439	-0.797381	-0.006794	-0.011900	0.000486	0.999929	
3733														-0.123523	-0.001258	9.787589	-0.797329	0.603465	-0.009792	-0.603427	-0.797389	-0.006785	-0.011903	0.000499	0.999929	
3734														-0.094349	0.000584	9.773225	-0.797301	0.603503	-0.009805	-0.603465	-0.797361	-0.006798	-0.011921	0.000497	0.999929	
3735														-0.108950	-0.000428	9.758440	-0.797337	0.603454	-0.009794	-0.603416	-0.797397	-0.006791	-0.011907	0.000495	0.999929	
3736														-0.110421	0.015217	9.787339	-0.797391	0.603383	-0.009817	-0.603344	-0.797452	-0.006812	-0.011939	0.000492	0.999929	
3737														-0.110380	0.014675	9.758050	-0.797400	0.603372	-0.009808	-0.603333	-0.797460	-0.006826	-0.011940	0.000475	0.999929	
3738														-0.095243	0.002110	9.787861	-0.797399	0.603372	-0.009816	-0.603334	-0.797459	-0.006795	-0.011928	0.000504	0.999929	
3739														-0.124632	0.000681	9.787575	-0.797407	0.603362	-0.009829	-0.603324	-0.797467	-0.006808	-0.011946	0.000502	0.999929	
3740														-0.109922	0.001605	9.773073	-0.797415	0.603351	-0.009815	-0.603313	-0.797476	-0.006779	-0.011918	0.000516	0.999929	
3741														-0.126554	0.030184	9.772156	-0.797414	0.603352	-0.009831	-0.603314	-0.797475	-0.006813	-0.011950	0.000498	0.999928	
3742														-0.110774	0.002781	9.802353	-0.797414	0.603353	-0.009833	-0.603315	-0.797474	-0.006837	-0.011967	0.000481	0.999928	
3743														-0.111596	0.016926	9.772678	-0.797431	0.603330	-0.009844	-0.603291	-0.797492	-0.006828	-0.011970	0.000494	0.999928	
3744														-0.095708	0.002865	9.743923	-0.797430	0.603331	-0.009821	-0.603293	-0.797491	-0.006811	-0.011941	0.000493	0.999929	
3745														-0.110605	0.003360	9.787710	-0.797429	0.603333	-0.009786	-0.603295	-0.797489	-0.006785	-0.011898	0.000493	0.999929	
3746														-0.110296	0.003430	9.773069	-0.797410	0.603359	-0.009795	-0.603321	-0.797470	-0.006755	-0.011887	0.000523	0.999929	
3747														-0.110694	0.004247	9.787709	-0.797409	0.603360	-0.009819	-0.603322	-0.797469	-0.006777	-0.011919	0.000520	0.999929	
3748														-0.109956	-0.010465	9.773452	-0.797427	0.603336	-0.009832	-0.603298	-0.797487	-0.006789	-0.011937	0.000518	0.999929	
3749														-0.125659	0.003488	9.772916	-0.797454	0.603300	-0.009820	-0.603262	-0.797514	-0.006782	-0.011923	0.000516	0.999929	
3750														-0.125565	0.003544	9.758273	-0.797471	0.603277	-0.009840	-0.603239	-0.797532	-0.006761	-0.011926	0.000544	0.999929	
3751														-0.097675	0.020945	9.772808	-0.797470	0.603278	-0.009862	-0.603240	-0.797531	-0.006761	-0.011944	0.000558	0.999929	
3752														-0.111480	0.005434	9.758410	-0.797460	0.603291	-0.009884	-0.603253	-0.797521	-0.006761	-0.011962	0.000570	0.999928	
3753														-0.113513	0.034784	9.742976	-0.797441	0.603316	-0.009916	-0.603278	-0.797502	-0.006750	-0.011981	0.000599	0.999928	
3754														-0.098717	0.023028	9.802083	-0.797357	0.603427	-0.009885	-0.603389	-0.797418	-0.006747	-0.011954	0.000584	0.999928	
3755														-0.044412	0.098969	9.756763	-0.797181	0.603660	-0.009875	-0.603622	-0.797242	-0.006744	-0.011944	0.000585	0.999928	
3756														0.107236	0.476857	9.777903	-0.796451	0.604622	-0.009901	-0.604585	-0.796512	-0.006717	-0.011948	0.000637	0.999928	
3757														-0.035855	0.424802	9.792248	-0.795452	0.605935	-0.009929	-0.605899	-0.795514	-0.006673	-0.011942	0.000707	0.999928	
3758														-0.183167	-0.025114	9.758473	-0.794618	0.607029	-0.009871	-0.606993	-0.794679	-0.006657	-0.011885	0.000702	0.999929	
3759														-0.258037	-0.249069	9.778198	-0.794080	0.607732	-0.009894	-0.607695	-0.794142	-0.006722	-0.011943	0.000674	0.999928	
3760														-0.272278	-0.264511	9.778438	-0.794136	0.607660	-0.009875	-0.607623	-0.794197	-0.006748	-0.011943	0.000642	0.999928	
3761														-0.196934	-0.234377	9.771189	-0.794293	0.607455	-0.009862	-0.607418	-0.794354	-0.006737	-0.011927	0.000639	0.999929	
3762														-0.121589	-0.204243	9.763941	-0.794449	0.607251	-0.009850	-0.607214	-0.794510	-0.006727	-0.011911	0.000637	0.999929	
3763														-0.127090	0.008556	9.758250	-0.794467	0.607227	-0.009851	-0.607190	-0.794528	-0.006729	-0.011913	0.000635	0.999929	
3764														-0.141771	0.007799	9.758103	-0.794541	0.607132	-0.009820	-0.607094	-0.794601	-0.006744	-0.011898	0.000603	0.999929	
3765														-0.171371	0.006592	9.787096	-0.794873	0.606697	-0.009779	-0.606659	-0.794933	-0.006787	-0.011892	0.000538	0.999929	
3766														-0.142115	0.008251	9.787388	-0.795326	0.606104	-0.009754	-0.606066	-0.795386	-0.006782	-0.011869	0.000517	0.999929	
3767														-0.110672	-0.019838	9.759192	-0.795853	0.605412	-0.009739	-0.605374	-0.795912	-0.006786	-0.011860	0.000495	0.999930	
3768														-0.124457	-0.035145	9.759444	-0.796323	0.604793	-0.009756	-0.604755	-0.796383	-0.006776	-0.011868	0.000504	0.999929	
3769														-0.184462	-0.023166	9.787743	-0.796756	0.604222	-0.009785	-0.604184	-0.796816	-0.006777	-0.011892	0.000512	0.999929	
3770														-0.276044	0.029198	9.770617	-0.797456	0.603298	-0.009771	-0.603260	-0.797516	-0.006799	-0.011894	0.000473	0.999929	
3771														-0.231092	0.016490	9.742167	-0.798522	0.601886	-0.009773	-0.601848	-0.798582	-0.006810	-0.011904	0.000444	0.999929	
3772														-0.146806	0.067341	9.771127	-0.799834	0.600142	-0.009785	-0.600105	-0.799893	-0.006728	-0.011865	0.000491	0.999929	
3773														-0.131240	0.054085	9.771673	-0.801333	0.598138	-0.009783	-0.598101	-0.801393	-0.006730	-0.011865	0.000458	0.999929	
3774														-0.232081	0.017018	9.771437	-0.802973	0.595934	-0.009843	-0.595895	-0.803034	-0.006819	-0.011968	0.000389	0.999928	
3775														-0.230680	-0.012667	9.772224	-0.804789	0.593479	-0.009882	-0.593440	-0.804849	-0.006831	-0.012007	0.000367	0.999928	
3776														-0.237984	0.074878	9.784443	-0.806687	0.590896	-0.009841	-0.590857	-0.806747	-0.006817	-0.011967	0.000316	0.999928	
3777														-0.182226	0.108199	9.784232	-0.808847	0.587937	-0.009815	-0.587897	-0.808907	-0.006849	-0.011966	0.000230	0.999928	
3778														-0.219203	0.191354	9.722926	-0.811282	0.584571	-0.009908	-0.584531	-0.811342	-0.006817	-0.012024	0.000261	0.999928	
3779														-0.047372	0.061877	9.801816	-0.813979	0.580811	-0.009865	-0.580771	-0.814038	-0.006849	-0.012009	0.000155	0.999928	
3780														-0.006145	0.014315	9.788967	-0.816320	0.577500	-0.009929	-0.577459	-0.816381	-0.006832	-0.012052	0.000156	0.999927	
3781														0.035081	-0.033246	9.776119	-0.818662	0.574189	-0.009992	-0.574148	-0.818723	-0.006815	-0.012094	0.000158	0.999927	
3782														0.153899	-0.182359	9.752380	-0.821032	0.570794	-0.009985	-0.570753	-0.821093	-0.006838	-0.012101	0.000085	0.999927	
3783														-0.099824	0.115525	9.770424	-0.824047	0.566432	-0.010057	-0.566391	-0.824108	-0.006856	-0.012172	0.000046	0.999926	
3784														-0.246723	0.098534	9.754232	-0.826763	0.562458	-0.010185	-0.562416	-0.826826	-0.006863	-0.012281	0.000054	0.999925	
3785														-0.326253	0.133270	9.766841	-0.829607	0.558254	-0.010235	-0.558212	-0.829670	-0.006865	-0.012324	0.000018	0.999924	
3786														-0.324013	-0.014326	9.800065	-0.832776	0.553515	-0.010260	-0.553472	-0.832839	-0.006861	-0.012342	-0.000035	0.999924	
3787														-0.292532	-0.027521	9.771503	-0.835920	0.548757	-0.010190	-0.548714	-0.835982	-0.006880	-0.012294	-0.000160	0.999924	
3788														-0.136864	-0.082201	9.760469	-0.838695	0.544506	-0.010146	-0.544463	-0.838757	-0.006906	-0.012270	-0.000267	0.999925	
3789														-0.204503	0.084179	9.725780	-0.841590	0.540021	-0.010174	-0.539977	-0.841651	-0.006906	-0.012293	-0.000318	0.999924	
3790														-0.239218	0.109167	9.768562	-0.844584	0.535326	-0.010183	-0.535282	-0.844645	-0.006928	-0.012309	-0.000401	0.999924	
3791														-0.304601	0.142502	9.766696	-0.847691	0.530393	-0.010174	-0.530348	-0.847752	-0.006916	-0.012293	-0.000466	0.999924	
3792														-0.272893	0.028100	9.755488	-0.850865	0.525282	-0.010374	-0.525238	-0.850928	-0.006847	-0.012424	-0.000377	0.999923	
3793														-0.108300	-0.077714	9.790058	-0.854074	0.520048	-0.010386	-0.520003	-0.854137	-0.006903	-0.012461	-0.000494	0.999922	
3794														-0.035034	-0.243637	9.795530	-0.857267	0.514767	-0.010452	-0.514721	-0.857330	-0.006884	-0.012504	-0.000521	0.999922	
3795														-0.171069	-0.060322	9.773940	-0.860568	0.509227	-0.010475	-0.509180	-0.860632	-0.006944	-0.012551	-0.000642	0.999921	
3796														0.040544	0.006600	9.731560	-0.863998	0.503388	-0.010409	-0.503341	-0.864060	-0.006937	-0.012486	-0.000754	0.999922	
3797														-0.235709	0.044548	9.770122	-0.867510	0.497309	-0.010475	-0.497262	-0.867573	-0.006872	-0.012505	-0.000753	0.999922	
3798														-0.121271	0.066906	9.771382	-0.870778	0.491565	-0.010462	-0.491518	-0.870840	-0.006847	-0.012477	-0.000820	0.999922	
3799														-0.317464	0.070935	9.768046	-0.873643	0.486454	-0.010556	-0.486406	-0.873706	-0.006848	-0.012554	-0.000848	0.999921	
3800														-0.043088	-0.096109	9.791539	-0.876841	0.480667	-0.010445	-0.480619	-0.876903	-0.006885	-0.012468	-0.001017	0.999922	
3801														-0.182333	-0.007204	9.786898	-0.880111	0.474651	-0.010553	-0.474603	-0.880173	-0.006868	-0.012549	-0.001036	0.999921	
3802														-0.162342	0.100826	9.755131	-0.883679	0.467975	-0.010516	-0.467926	-0.883741	-0.006910	-0.012527	-0.001185	0.999921	
3803														-0.139199	-0.000308	9.743443	-0.887446	0.460792	-0.010528	-0.460742	-0.887507	-0.006869	-0.012509	-0.001245	0.999921	
3804														-0.204212	0.014442	9.785876	-0.891233	0.453423	-0.010567	-0.453372	-0.891294	-0.006918	-0.012555	-0.001375	0.999920	
3805														-0.052183	0.066445	9.772569	-0.894981	0.445978	-0.010586	-0.445926	-0.895043	-0.006971	-0.012584	-0.001518	0.999920	
3806														-0.035816	0.116059	9.756973	-0.898473	0.438899	-0.010642	-0.438847	-0.898535	-0.006923	-0.012601	-0.001550	0.999919	
3807														0.004825	-0.038869	9.761641	-0.901731	0.432163	-0.010749	-0.432110	-0.901794	-0.006948	-0.012696	-0.001621	0.999918	
3808														0.031497	-0.029016	9.820534	-0.904738	0.425833	-0.010766	-0.425780	-0.904800	-0.006954	-0.012702	-0.001707	0.999918	
3809														-0.009768	-0.042192	9.761480	-0.907397	0.420136	-0.010780	-0.420082	-0.907459	-0.006982	-0.012716	-0.001807	0.999918	
3810														0.081705	0.061556	9.775297	-0.909728	0.415066	-0.010774	-0.415011	-0.909789	-0.007003	-0.012709	-0.001899	0.999917	
3811														0.092485	-0.025931	9.763060	-0.911790	0.410514	-0.010868	-0.410460	-0.911853	-0.006912	-0.012748	-0.001841	0.999917	
3812														-0.138650	0.028274	9.786611	-0.913636	0.406388	-0.010874	-0.406334	-0.913699	-0.006913	-0.012745	-0.001897	0.999917	
3813														-0.107822	-0.070696	9.760340	-0.915346	0.402522	-0.010835	-0.402467	-0.915408	-0.006906	-0.012699	-0.001961	0.999917	
3814														-0.242644	-0.082031	9.787286	-0.917059	0.398604	-0.010840	-0.398548	-0.917121	-0.006945	-0.012710	-0.002049	0.999917	
3815														-0.064953	0.035548	9.773214	-0.918658	0.394903	-0.010928	-0.394849	-0.918721	-0.006858	-0.012748	-0.001985	0.999917	
3816														-0.111162	0.082604	9.756504	-0.920176	0.391352	-0.010955	-0.391297	-0.920239	-0.006842	-0.012759	-0.002009	0.999917	
3817														-0.046713	0.119107	9.742243	-0.921740	0.387651	-0.011020	-0.387596	-0.921804	-0.006848	-0.012813	-0.002041	0.999916	
3818														-0.293751	-0.023378	9.770116	-0.923326	0.383858	-0.011033	-0.383803	-0.923390	-0.006820	-0.012806	-0.002063	0.999916	
3819														-0.191853	-0.143783	9.789772	-0.924933	0.379970	-0.011055	-0.379915	-0.924996	-0.006833	-0.012822	-0.002120	0.999916	
3820														-0.108629	-0.069409	9.789624	-0.926541	0.376032	-0.011046	-0.375977	-0.926604	-0.006808	-0.012795	-0.002155	0.999916	
3821														0.025852	-0.054404	9.777347	-0.927965	0.372502	-0.011068	-0.372446	-0.928029	-0.006860	-0.012827	-0.002243	0.999915	
3822														0.080384	0.011193	9.762228	-0.929194	0.369426	-0.011105	-0.369369	-0.929257	-0.006872	-0.012858	-0.002283	0.999915	
3823														0.053103	-0.044130	9.763047	-0.930134	0.367050	-0.011159	-0.366993	-0.930198	-0.006847	-0.012893	-0.002274	0.999914	
3824														-0.062163	-0.069267	9.761276	-0.930945	0.364990	-0.011110	-0.364933	-0.931008	-0.006853	-0.012845	-0.002325	0.999915	
3825														-0.106460	0.009849	9.802396	-0.931661	0.363158	-0.011150	-0.363101	-0.931725	-0.006807	-0.012861	-0.002294	0.999915	
3826														-0.107167	0.055400	9.757313	-0.932329	0.361439	-0.011185	-0.361382	-0.932393	-0.006832	-0.012898	-0.002327	0.999914	
3827														-0.152530	0.007807	9.757523	-0.932960	0.359807	-0.011161	-0.359749	-0.933024	-0.006839	-0.012874	-0.002365	0.999914	
3828														-0.110519	-0.022922	9.788463	-0.933644	0.358028	-0.011133	-0.357970	-0.933708	-0.006878	-0.012857	-0.002436	0.999914	
3829														0.028269	-0.144712	9.765034	-0.934287	0.356349	-0.011106	-0.356291	-0.934349	-0.006918	-0.012842	-0.002507	0.999914	
3830														-0.019811	-0.099320	9.777579	-0.934750	0.355132	-0.011142	-0.355074	-0.934813	-0.006895	-0.012865	-0.002489	0.999914	
3831														-0.055361	-0.002819	9.759847	-0.935134	0.354117	-0.011170	-0.354060	-0.935198	-0.006833	-0.012866	-0.002435	0.999914	
3832														-0.141503	0.059797	9.771156	-0.935441	0.353305	-0.011179	-0.353247	-0.935505	-0.006869	-0.012885	-0.002476	0.999914	
3833														-0.194867	-0.006587	9.771648	-0.935862	0.352188	-0.011188	-0.352131	-0.935926	-0.006776	-0.012858	-0.002402	0.999914	
3834														-0.179493	-0.047271	9.772983	-0.936369	0.350838	-0.011200	-0.350781	-0.936433	-0.006790	-0.012870	-0.002429	0.999914	
3835														-0.198734	-0.038356	9.787010	-0.936988	0.349182	-0.011191	-0.349125	-0.937052	-0.006771	-0.012851	-0.002437	0.999914	
3836														-0.102494	-0.002561	9.773538	-0.937615	0.347495	-0.011157	-0.347437	-0.937678	-0.006824	-0.012833	-0.002522	0.999914	
3837														-0.128445	-0.058714	9.789015	-0.938239	0.345806	-0.011226	-0.345749	-0.938303	-0.006762	-0.012872	-0.002463	0.999914	
3838														-0.091762	-0.030078	9.745148	-0.938844	0.344161	-0.011173	-0.344103	-0.938907	-0.006788	-0.012827	-0.002528	0.999915	
3839														-0.185498	-0.033105	9.801814	-0.939388	0.342674	-0.011185	-0.342616	-0.939451	-0.006800	-0.012838	-0.002556	0.999914	
3840														-0.157497	-0.023416	9.758222	-0.939908	0.341244	-0.011220	-0.341186	-0.939971	-0.006773	-0.012858	-0.002538	0.999914	
3841														-0.214925	0.002178	9.771010	-0.940436	0.339784	-0.011226	-0.339727	-0.940500	-0.006765	-0.012857	-0.002548	0.999914	
3842														-0.124917	0.053012	9.771729	-0.940900	0.338499	-0.011203	-0.338441	-0.940963	-0.006812	-0.012847	-0.002617	0.999914	
3843														-0.059988	0.047353	9.773294	-0.941430	0.337022	-0.011245	-0.336964	-0.941493	-0.006771	-0.012869	-0.002585	0.999914	
3844														-0.044414	0.007059	9.774642	-0.941988	0.335456	-0.011298	-0.335398	-0.942052	-0.006771	-0.012915	-0.002589	0.999913	
3845														-0.072057	-0.082222	9.776230	-0.942560	0.333846	-0.011277	-0.333788	-0.942624	-0.006744	-0.012881	-0.002593	0.999914	
3846														-0.169131	-0.074594	9.744589	-0.943093	0.332337	-0.011267	-0.332279	-0.943157	-0.006761	-0.012874	-0.002633	0.999914	
3847														-0.249046	-0.073925	9.786762	-0.943701	0.330607	-0.011275	-0.330548	-0.943765	-0.006803	-0.012890	-0.002694	0.999913	
3848														-0.257466	-0.014362	9.785114	-0.944413	0.328567	-0.011284	-0.328508	-0.944477	-0.006773	-0.012883	-0.002689	0.999913	
3849														-0.183925	-0.001035	9.771763	-0.945228	0.326216	-0.011279	-0.326157	-0.945291	-0.006818	-0.012886	-0.002766	0.999913	
3850														-0.228861	0.029590	9.813981	-0.945976	0.324039	-0.011310	-0.323980	-0.946040	-0.006746	-0.012886	-0.002717	0.999913	
3851														-0.164419	-0.009812	9.728455	-0.946704	0.321904	-0.011356	-0.321844	-0.946768	-0.006771	-0.012931	-0.002755	0.999913	
3852														-0.209553	0.020192	9.770667	-0.947448	0.319708	-0.011318	-0.319648	-0.947512	-0.006817	-0.012904	-0.002841	0.999913	
3853														-0.195971	0.025138	9.756190	-0.948271	0.317259	-0.011364	-0.317198	-0.948335	-0.006803	-0.012935	-0.002846	0.999912	
3854														-0.223186	0.013449	9.741200	-0.949176	0.314540	-0.011408	-0.314480	-0.949240	-0.006784	-0.012963	-0.002852	0.999912	
3855														-0.115143	-0.018349	9.788419	-0.950136	0.311626	-0.011452	-0.311566	-0.950201	-0.006728	-0.012978	-0.002825	0.999912	
3856														-0.082393	-0.020154	9.774575	-0.951078	0.308737	-0.011481	-0.308678	-0.951143	-0.006699	-0.012988	-0.002828	0.999912	
3857														-0.199163	-0.007700	9.742267	-0.952022	0.305816	-0.011466	-0.305756	-0.952086	-0.006715	-0.012970	-0.002887	0.999912	
3858														-0.088568	-0.006441	9.788755	-0.952990	0.302787	-0.011430	-0.302727	-0.953054	-0.006735	-0.012933	-0.002959	0.999912	
3859														-0.107441	0.000291	9.758841	-0.953938	0.299783	-0.011491	-0.299722	-0.954003	-0.006740	-0.012983	-0.002986	0.999911	
3860														-0.005287	-0.049807	9.762459	-0.954822	0.296954	-0.011516	-0.296893	-0.954887	-0.006657	-0.012973	-0.002937	0.999912	
3861														-0.154290	-0.003741	9.757861	-0.955657	0.294255	-0.011542	-0.294193	-0.955722	-0.006733	-0.013012	-0.003039	0.999911	
3862														0.033066	-0.063964	9.763728	-0.956408	0.291807	-0.011541	-0.291746	-0.956472	-0.006709	-0.012996	-0.003049	0.999911	
3863														-0.078852	-0.065675	9.775787	-0.957084	0.289581	-0.011560	-0.289519	-0.957148	-0.006751	-0.013019	-0.003114	0.999910	
3864														-0.052369	-0.053237	9.776129	-0.957665	0.287652	-0.011585	-0.287590	-0.957730	-0.006694	-0.013021	-0.003079	0.999910	
3865														-0.255107	-0.032992	9.770822	-0.958171	0.285960	-0.011623	-0.285898	-0.958237	-0.006718	-0.013058	-0.003114	0.999910	
3866														-0.240345	0.038786	9.784101	-0.958777	0.283923	-0.011625	-0.283861	-0.958842	-0.006700	-0.013049	-0.003124	0.999910	
3867														-0.182596	-0.015994	9.757492	-0.959426	0.281719	-0.011661	-0.281657	-0.959492	-0.006681	-0.013070	-0.003125	0.999910	
3868														-0.053263	-0.051978	9.776130	-0.960080	0.279482	-0.011679	-0.279420	-0.960145	-0.006722	-0.013093	-0.003190	0.999909	
3869														-0.125826	-0.036126	9.803320	-0.960767	0.277109	-0.011701	-0.277047	-0.960833	-0.006659	-0.013088	-0.003156	0.999909	
3870														-0.012915	-0.033225	9.747367	-0.961406	0.274884	-0.011673	-0.274822	-0.961472	-0.006691	-0.013062	-0.003225	0.999909	
3871														-0.079140	-0.031347	9.775022	-0.962015	0.272747	-0.011679	-0.272684	-0.962080	-0.006727	-0.013071	-0.003287	0.999909	
3872														-0.092091	-0.004685	9.774080	-0.962614	0.270623	-0.011730	-0.270560	-0.962680	-0.006682	-0.013100	-0.003259	0.999909	
3873														-0.059793	-0.004953	9.774891	-0.963209	0.268497	-0.011750	-0.268433	-0.963275	-0.006725	-0.013124	-0.003323	0.999908	
3874														-0.151784	-0.016903	9.772916	-0.963850	0.266188	-0.011730	-0.266125	-0.963915	-0.006709	-0.013092	-0.003345	0.999909	
3875														-0.145786	-0.062864	9.788802	-0.964556	0.263621	-0.011664	-0.263557	-0.964620	-0.006769	-0.013036	-0.003455	0.999909	
3876														-0.092274	-0.071353	9.746338	-0.965299	0.260884	-0.011700	-0.260819	-0.965364	-0.006796	-0.013068	-0.003509	0.999908	
3877														-0.125684	-0.004989	9.773256	-0.966015	0.258219	-0.011724	-0.258154	-0.966080	-0.006783	-0.013078	-0.003526	0.999908	
3878														-0.191487	0.060829	9.770067	-0.966744	0.255476	-0.011776	-0.255411	-0.966809	-0.006749	-0.013109	-0.003516	0.999908	
3879														-0.283632	0.014942	9.768850	-0.967532	0.252472	-0.011791	-0.252407	-0.967598	-0.006709	-0.013103	-0.003515	0.999908	
3880														-0.277239	0.034034	9.753895	-0.968347	0.249327	-0.011846	-0.249262	-0.968413	-0.006689	-0.013139	-0.003524	0.999907	
3881														-0.283063	-0.052069	9.741111	-0.969102	0.246377	-0.011812	-0.246311	-0.969167	-0.006710	-0.013102	-0.003594	0.999908	
3882														-0.133988	0.041528	9.757336	-0.969977	0.242904	-0.011900	-0.242839	-0.970044	-0.006617	-0.013151	-0.003529	0.999907	
3883														-0.161510	0.028879	9.786259	-0.970826	0.239488	-0.011930	-0.239422	-0.970893	-0.006667	-0.013180	-0.003616	0.999907	
3884														-0.087981	-0.049226	9.760671	-0.971729	0.235792	-0.012001	-0.235726	-0.971797	-0.006631	-0.013226	-0.003615	0.999906	
3885														-0.110250	0.055131	9.772300	-0.972628	0.232062	-0.011906	-0.231996	-0.972694	-0.006715	-0.013139	-0.003769	0.999907	
3886														-0.169714	0.072705	9.770345	-0.973501	0.228372	-0.011922	-0.228306	-0.973567	-0.006684	-0.013134	-0.003785	0.999907	
3887														-0.265249	-0.029143	9.755575	-0.974424	0.224400	-0.011977	-0.224333	-0.974490	-0.006705	-0.013176	-0.003847	0.999906	
3888														-0.180639	-0.033268	9.772515	-0.975573	0.219347	-0.011988	-0.219279	-0.975639	-0.006708	-0.013167	-0.003915	0.999906	
3889														-0.297348	-0.065312	9.770157	-0.976853	0.213576	-0.011979	-0.213508	-0.976918	-0.006761	-0.013147	-0.004047	0.999905	
3890														-0.341944	-0.108020	9.799210	-0.978217	0.207238	-0.012008	-0.207168	-0.978282	-0.006791	-0.013154	-0.004156	0.999905	
3891														-0.174677	-0.135349	9.745587	-0.979608	0.200560	-0.011999	-0.200490	-0.979672	-0.006816	-0.013123	-0.004272	0.999905	
3892														-0.161494	-0.011362	9.728447	-0.980942	0.193929	-0.012013	-0.193858	-0.981006	-0.006835	-0.013110	-0.004376	0.999904	
3893														-0.006243	0.098344	9.788793	-0.982212	0.187393	-0.011966	-0.187322	-0.982275	-0.006808	-0.013029	-0.004446	0.999905	
3894														-0.158405	0.039346	9.727355	-0.983380	0.181168	-0.011923	-0.181096	-0.983441	-0.006923	-0.012980	-0.004648	0.999905	
3895														-0.291412	0.114553	9.780694	-0.984555	0.174665	-0.011992	-0.174592	-0.984617	-0.006833	-0.013001	-0.004634	0.999905	
3896														-0.279183	0.035066	9.782744	-0.985718	0.167976	-0.011975	-0.167902	-0.985779	-0.006954	-0.012972	-0.004844	0.999904	
3897														-0.257039	-0.057402	9.756010	-0.986875	0.161038	-0.011986	-0.160964	-0.986936	-0.006865	-0.012935	-0.004846	0.999905	
3898														-0.090057	-0.021363	9.774505	-0.987945	0.154335	-0.012044	-0.154260	-0.988006	-0.006902	-0.012964	-0.004961	0.999904	
3899														-0.170626	0.101957	9.798927	-0.989027	0.147240	-0.012083	-0.147165	-0.989088	-0.006891	-0.012966	-0.005037	0.999903	
3900														-0.159258	0.056170	9.770915	-0.990070	0.140052	-0.012141	-0.139977	-0.990131	-0.006803	-0.012974	-0.005036	0.999903	
3901														-0.265843	-0.050081	9.770123	-0.991091	0.132627	-0.012161	-0.132551	-0.991152	-0.006862	-0.012963	-0.005189	0.999903	
3902														-0.222175	-0.039171	9.800405	-0.992078	0.125027	-0.012200	-0.124949	-0.992139	-0.006910	-0.012968	-0.005331	0.999902	
3903														-0.098674	-0.011917	9.715437	-0.993021	0.117298	-0.012296	-0.117221	-0.993082	-0.006830	-0.013012	-0.005341	0.999901	
3904														-0.096787	-0.042952	9.804071	-0.993923	0.109396	-0.012267	-0.109317	-0.993983	-0.006910	-0.012950	-0.005527	0.999901	
3905														-0.143213	-0.078171	9.774086	-0.994750	0.101604	-0.012248	-0.101525	-0.994809	-0.006862	-0.012882	-0.005582	0.999901	
3906														-0.076242	-0.121026	9.776893	-0.995535	0.093586	-0.012307	-0.093507	-0.995595	-0.006894	-0.012898	-0.005712	0.999900	
3907														-0.136095	-0.113253	9.730962	-0.996291	0.085152	-0.012371	-0.085070	-0.996351	-0.006939	-0.012917	-0.005861	0.999899	
3908														-0.215396	-0.008066	9.755810	-0.997017	0.076186	-0.012357	-0.076106	-0.997076	-0.006877	-0.012845	-0.005916	0.999900	
3909														-0.201998	-0.125048	9.817098	-0.997714	0.066410	-0.012495	-0.066329	-0.997774	-0.006819	-0.012920	-0.005975	0.999899	
3910														-0.177645	-0.202947	9.746023	-0.998330	0.056387	-0.012572	-0.056306	-0.998391	-0.006698	-0.012929	-0.005979	0.999899	
3911														-0.324313	-0.206972	9.800179	-0.998840	0.046486	-0.012595	-0.046404	-0.998900	-0.006671	-0.012891	-0.006079	0.999898	
3912														-0.282565	-0.141821	9.741510	-0.999261	0.036303	-0.012645	-0.036221	-0.999322	-0.006651	-0.012878	-0.006188	0.999898	
3913														-0.253162	-0.041968	9.784478	-0.999576	0.026178	-0.012741	-0.026096	-0.999638	-0.006599	-0.012909	-0.006263	0.999897	
3914														-0.221473	0.099268	9.797511	-0.999786	0.016244	-0.012780	-0.016161	-0.999848	-0.006575	-0.012885	-0.006367	0.999897	
3915														-0.242723	0.098448	9.767535	-0.999898	0.006208	-0.012828	-0.006124	-0.999960	-0.006568	-0.012868	-0.006488	0.999896	
3916														-0.260211	0.004041	9.768645	-0.999906	-0.004779	-0.012844	0.004863	-0.999967	-0.006520	-0.012813	-0.006581	0.999896	
3917														-0.146767	-0.057358	9.685379	-0.999787	-0.016133	-0.012908	0.016219	-0.999847	-0.006549	-0.012801	-0.006757	0.999895	
3918														-0.127889	-0.058005	9.740954	-0.999473	-0.027497	-0.012966	0.027583	-0.999534	-0.006508	-0.012781	-0.006863	0.999895	
3919														-0.109011	-0.058653	9.796529	-0.999160	-0.038861	-0.013023	0.038947	-0.999220	-0.006467	-0.012762	-0.006969	0.999894	
3920														-0.232541	-0.057793	9.770436	-0.998668	-0.049903	-0.013082	0.049990	-0.998729	-0.006395	-0.012746	-0.007041	0.999894	
3921														-0.054130	0.135483	9.729218	-0.998090	-0.060371	-0.013129	0.060459	-0.998150	-0.006423	-0.012717	-0.007205	0.999893	
3922														0.013083	0.271537	9.817301	-0.997424	-0.070524	-0.013094	0.070612	-0.997483	-0.006426	-0.012607	-0.007334	0.999894	
3923														-0.245964	0.173910	9.766237	-0.996657	-0.080627	-0.013194	0.080717	-0.996716	-0.006409	-0.012634	-0.007453	0.999892	
3924														-0.156687	0.226160	9.768490	-0.995812	-0.090462	-0.013226	0.090552	-0.995871	-0.006372	-0.012595	-0.007543	0.999892	
3925														-0.107664	0.258249	9.740409	-0.994888	-0.100110	-0.013230	0.100199	-0.994948	-0.006231	-0.012539	-0.007524	0.999893	
3926														-0.182322	0.163468	9.856587	-0.993897	-0.109520	-0.013188	0.109610	-0.993955	-0.006238	-0.012426	-0.007645	0.999894	
3927														-0.121954	0.049606	9.743075	-0.992790	-0.119141	-0.013208	0.119230	-0.992847	-0.006197	-0.012375	-0.007727	0.999894	
3928														-0.209031	-0.070920	9.756452	-0.991626	-0.128456	-0.013267	0.128547	-0.991684	-0.006251	-0.012353	-0.007904	0.999892	
3929														-0.105801	-0.200122	9.761787	-0.990400	-0.137596	-0.013254	0.137687	-0.990456	-0.006236	-0.012269	-0.008001	0.999893	
3930														-0.104979	-0.065664	9.759923	-0.989110	-0.146578	-0.013272	0.146670	-0.989166	-0.006233	-0.012214	-0.008112	0.999893	
3931														-0.093220	0.133178	9.786985	-0.987738	-0.155551	-0.013341	0.155643	-0.987794	-0.006164	-0.012220	-0.008165	0.999892	
3932														-0.108685	0.068862	9.772669	-0.986254	-0.164697	-0.013329	0.164789	-0.986310	-0.006147	-0.012134	-0.008259	0.999892	
3933														-0.133234	-0.080831	9.744414	-0.984730	-0.173581	-0.013283	0.173674	-0.984784	-0.006156	-0.012012	-0.008368	0.999893	
3934														-0.253079	0.030192	9.812040	-0.983079	-0.182691	-0.013372	0.182784	-0.983134	-0.006119	-0.012029	-0.008460	0.999892	
3935														-0.180730	-0.119469	9.757820	-0.981322	-0.191905	-0.013411	0.191998	-0.981377	-0.006034	-0.012003	-0.008496	0.999892	
3936														-0.083205	0.007979	9.759745	-0.979432	-0.201325	-0.013463	0.201419	-0.979486	-0.006059	-0.011967	-0.008646	0.999891	
3937														-0.253317	0.023591	9.738792	-0.977418	-0.210883	-0.013516	0.210978	-0.977472	-0.006018	-0.011943	-0.008733	0.999891	
3938														-0.364275	-0.079637	9.750602	-0.975430	-0.219893	-0.013556	0.219988	-0.975484	-0.005995	-0.011905	-0.008830	0.999890	
3939														-0.310477	-0.030294	9.766625	-0.973322	-0.229039	-0.013596	0.229133	-0.973378	-0.005781	-0.011910	-0.008742	0.999891	
3940														-0.100223	0.017003	9.803098	-0.971036	-0.238541	-0.013708	0.238636	-0.971092	-0.005751	-0.011940	-0.008856	0.999889	
3941														-0.169481	-0.007670	9.771517	-0.968553	-0.248429	-0.013751	0.248525	-0.968609	-0.005728	-0.011896	-0.008966	0.999889	
3942														-0.113886	0.023943	9.787907	-0.965898	-0.258553	-0.013820	0.258649	-0.965955	-0.005644	-0.011890	-0.009026	0.999889	
3943														-0.139104	-0.066376	9.817200	-0.963094	-0.268811	-0.013835	0.268908	-0.963149	-0.005716	-0.011789	-0.009226	0.999888	
3944														-0.202909	-0.095084	9.697786	-0.960078	-0.279387	-0.013910	0.279486	-0.960133	-0.005717	-0.011758	-0.009376	0.999887	
3945														-0.286881	-0.148628	9.724395	-0.956958	-0.289894	-0.013899	0.289994	-0.957011	-0.005760	-0.011632	-0.009543	0.999887	
3946														-0.206353	-0.046784	9.770413	-0.953779	-0.300182	-0.013979	0.300285	-0.953831	-0.005903	-0.011562	-0.009828	0.999885	
3947														-0.478478	0.265349	9.713570	-0.950469	-0.310502	-0.014038	0.310604	-0.950522	-0.005711	-0.011570	-0.009788	0.999885	
3948														-0.350239	0.051664	9.767772	-0.947420	-0.319536	-0.014152	0.319640	-0.947473	-0.005782	-0.011560	-0.010002	0.999883	
3949														-0.222000	-0.162021	9.821974	-0.944372	-0.328570	-0.014266	0.328677	-0.944424	-0.005853	-0.011550	-0.010216	0.999881	
3950														-0.342560	0.036547	9.764542	-0.941160	-0.337658	-0.014357	0.337762	-0.941215	-0.005571	-0.011633	-0.010092	0.999881	
3951														-0.266967	-0.006702	9.782411	-0.938229	-0.345719	-0.014327	0.345824	-0.938283	-0.005577	-0.011515	-0.010187	0.999882	
3952														-0.240366	0.043293	9.812398	-0.935543	-0.352924	-0.014286	0.353030	-0.935595	-0.005625	-0.011381	-0.010306	0.999882	
3953														0.010200	0.012298	9.763607	-0.932590	-0.360659	-0.014198	0.360763	-0.932642	-0.005470	-0.011269	-0.010223	0.999884	
3954														0.054430	0.052629	9.754093	-0.929238	-0.369097	-0.014227	0.369200	-0.929290	-0.005371	-0.011239	-0.010244	0.999884	
3955														0.098660	0.092960	9.744579	-0.925886	-0.377534	-0.014256	0.377636	-0.925939	-0.005272	-0.011210	-0.010265	0.999884	
3956														0.020123	0.042908	9.793218	-0.922660	-0.385352	-0.014198	0.385454	-0.922712	-0.005195	-0.011099	-0.010266	0.999886	
3957														0.129487	0.105368	9.797145	-0.919656	-0.392467	-0.014241	0.392569	-0.919708	-0.005117	-0.011090	-0.010296	0.999885	
3958														0.028854	0.025179	9.720407	-0.916909	-0.398844	-0.014177	0.398945	-0.916961	-0.005094	-0.010968	-0.010327	0.999887	
3959														0.005286	0.052264	9.778017	-0.914270	-0.404853	-0.014263	0.404954	-0.914324	-0.004931	-0.011045	-0.010285	0.999886	
3960														0.184681	0.100387	9.799521	-0.911804	-0.410376	-0.014313	0.410477	-0.911858	-0.004847	-0.011062	-0.010295	0.999886	
3961														0.120696	-0.012800	9.695023	-0.908775	-0.417039	-0.014342	0.417139	-0.908830	-0.004787	-0.011038	-0.010332	0.999886	
3962														0.040763	-0.073954	9.794830	-0.905527	-0.424044	-0.014414	0.424145	-0.905582	-0.004710	-0.011056	-0.010379	0.999885	
3963														-0.037646	-0.102844	9.821230	-0.902541	-0.430363	-0.014386	0.430461	-0.902599	-0.004429	-0.011079	-0.010190	0.999887	
3964														0.013527	-0.105145	9.691363	-0.899672	-0.436329	-0.014426	0.436426	-0.899729	-0.004348	-0.011082	-0.010208	0.999886	
3965														0.063398	-0.045488	9.810404	-0.896888	-0.442024	-0.014352	0.442118	-0.896948	-0.003994	-0.011108	-0.009928	0.999889	
3966														0.063002	-0.196444	9.811213	-0.894118	-0.447614	-0.013969	0.447695	-0.894181	-0.003186	-0.011065	-0.009102	0.999897	
3967														0.060806	-0.123815	9.737590	-0.891370	-0.453067	-0.013777	0.453141	-0.891435	-0.002668	-0.011072	-0.008621	0.999902	
3968														0.008323	-0.206347	9.794737	-0.888927	-0.457855	-0.013360	0.457918	-0.888993	-0.001919	-0.010998	-0.007823	0.999909	
3969														0.210633	0.113765	9.727654	-0.885980	-0.463530	-0.013422	0.463594	-0.886045	-0.001986	-0.010972	-0.007982	0.999908	
3970														0.219082	0.189795	9.786236	-0.882547	-0.470035	-0.013355	0.470098	-0.882612	-0.001884	-0.010902	-0.007940	0.999909	
3971														0.175719	0.157110	9.770113	-0.878541	-0.477469	-0.013714	0.477544	-0.878604	-0.002598	-0.010808	-0.008832	0.999903	
3972														-0.169716	0.003260	9.727664	-0.874866	-0.484142	-0.014689	0.484245	-0.874922	-0.004266	-0.010786	-0.010845	0.999883	
3973														-0.559946	-0.323002	9.771305	-0.871663	-0.489884	-0.014739	0.489989	-0.871718	-0.004367	-0.010709	-0.011029	0.999882	
3974														-0.083593	-0.657175	9.805810	-0.868731	-0.495064	-0.014746	0.495168	-0.868787	-0.004243	-0.010711	-0.010988	0.999882	
3975														0.032240	-0.415813	9.780598	-0.865188	-0.501231	-0.014708	0.501335	-0.865243	-0.004264	-0.010588	-0.011063	0.999883	
3976														-0.058081	-0.276965	9.747319	-0.861838	-0.506968	-0.014796	0.507072	-0.861894	-0.004152	-0.010648	-0.011081	0.999882	
3977														-0.153680	-0.139369	9.787189	-0.858617	-0.512403	-0.014831	0.512508	-0.858672	-0.004162	-0.010602	-0.011174	0.999881	
3978														-0.291886	-0.050380	9.722802	-0.855344	-0.517847	-0.014860	0.517952	-0.855400	-0.004063	-0.010607	-0.011172	0.999881	
3979														-0.413103	0.120798	9.834969	-0.852822	-0.521986	-0.014997	0.522093	-0.852878	-0.004166	-0.010616	-0.011383	0.999879	
3980														-0.096435	0.454142	9.730329	-0.850900	-0.525115	-0.014968	0.525219	-0.850958	-0.003905	-0.010686	-0.011184	0.999880	
3981														-0.220686	-0.059942	9.769698	-0.848418	-0.529114	-0.015007	0.529222	-0.848474	-0.004092	-0.010568	-0.011414	0.999879	
3982														-0.108660	-0.200213	9.789006	-0.845750	-0.533369	-0.014992	0.533475	-0.845806	-0.003994	-0.010550	-0.011376	0.999880	
3983														0.083907	-0.177379	9.723557	-0.842704	-0.538168	-0.015021	0.538275	-0.842760	-0.003996	-0.010509	-0.011452	0.999879	
3984														0.041986	-0.211366	9.795113	-0.839448	-0.543233	-0.015012	0.543341	-0.839503	-0.004035	-0.010411	-0.011544	0.999879	
3985														-0.089465	-0.311339	9.775030	-0.836248	-0.548146	-0.015014	0.548254	-0.836303	-0.003969	-0.010380	-0.011551	0.999879	
3986														-0.059741	-0.258530	9.790877	-0.833138	-0.552859	-0.015075	0.552968	-0.833193	-0.003973	-0.010364	-0.011646	0.999878	
3987														-0.052043	-0.003978	9.761931	-0.830318	-0.557083	-0.015160	0.557195	-0.830371	-0.004171	-0.010265	-0.011910	0.999876	
3988														-0.140693	0.244591	9.758487	-0.827288	-0.561574	-0.015129	0.561684	-0.827342	-0.004003	-0.010269	-0.011810	0.999878	
3989														-0.114724	0.298380	9.759650	-0.824049	-0.566315	-0.015178	0.566425	-0.824104	-0.003942	-0.010276	-0.011846	0.999877	
3990														-0.103214	-0.081275	9.774466	-0.820566	-0.571351	-0.015135	0.571460	-0.820621	-0.003807	-0.010245	-0.011773	0.999878	
3991														0.050028	-0.327475	9.780490	-0.817154	-0.576219	-0.015191	0.576329	-0.817209	-0.003849	-0.010196	-0.011900	0.999877	
3992														-0.146341	-0.342198	9.757646	-0.813956	-0.580728	-0.015210	0.580838	-0.814010	-0.003819	-0.010163	-0.011943	0.999877	
3993														-0.152212	-0.100740	9.772404	-0.810726	-0.585229	-0.015187	0.585338	-0.810781	-0.003726	-0.010133	-0.011910	0.999878	
3994														-0.058465	-0.090983	9.746953	-0.807649	-0.589468	-0.015188	0.589579	-0.807702	-0.003822	-0.010015	-0.012041	0.999877	
3995														0.014767	-0.091603	9.779309	-0.804995	-0.593085	-0.015258	0.593195	-0.805051	-0.003643	-0.010123	-0.011984	0.999877	
3996														0.065038	-0.145470	9.722675	-0.802793	-0.596062	-0.015284	0.596172	-0.802848	-0.003627	-0.010109	-0.012024	0.999877	
3997														0.133985	-0.010120	9.799135	-0.800753	-0.598799	-0.015315	0.598909	-0.800809	-0.003586	-0.010117	-0.012044	0.999876	
3998														0.061861	0.005045	9.796192	-0.798951	-0.601201	-0.015304	0.601311	-0.799007	-0.003566	-0.010084	-0.012051	0.999877	
3999														0.059254	-0.157847	9.795737	-0.797354	-0.603317	-0.015330	0.603427	-0.797411	-0.003476	-0.010127	-0.012022	0.999876	
4000														0.132624	-0.170913	9.754802	-0.795989	-0.605116	-0.015374	0.605227	-0.796046	-0.003455	-0.010148	-0.012055	0.999876	
4001														0.119267	-0.003328	9.754668	-0.795124	-0.606253	-0.015356	0.606361	-0.795182	-0.003323	-0.010197	-0.011953	0.999877	
4002														0.084647	-0.264460	9.737991	-0.794737	-0.606758	-0.015433	0.606868	-0.794795	-0.003360	-0.010227	-0.012036	0.999875	
4003														0.137084	-0.289650	9.798769	-0.794401	-0.607200	-0.015375	0.607309	-0.794459	-0.003348	-0.010181	-0.011997	0.999876	
4004														-0.031839	-0.405772	9.747475	-0.794231	-0.607421	-0.015381	0.607530	-0.794289	-0.003328	-0.010196	-0.011988	0.999876	
4005														-0.072404	-0.144318	9.746392	-0.794266	-0.607375	-0.015378	0.607484	-0.794325	-0.003299	-0.010211	-0.011962	0.999876	
4006														-0.078610	-0.083738	9.804922	-0.794531	-0.607029	-0.015377	0.607138	-0.794589	-0.003306	-0.010212	-0.011963	0.999876	
4007														-0.154261	-0.098531	9.757749	-0.794867	-0.606589	-0.015379	0.606698	-0.794926	-0.003300	-0.010223	-0.011953	0.999876	
4008														-0.141141	-0.100454	9.772980	-0.795177	-0.606181	-0.015400	0.606289	-0.795238	-0.003172	-0.010324	-0.011859	0.999876	
4009														-0.115766	-0.119682	9.774030	-0.795416	-0.605867	-0.015429	0.605975	-0.795477	-0.003195	-0.010338	-0.011891	0.999876	
4010														-0.168126	-0.079447	9.771923	-0.795608	-0.605616	-0.015399	0.605723	-0.795669	-0.003122	-0.010362	-0.011812	0.999877	
4011														-0.148531	-0.052527	9.772806	-0.795560	-0.605680	-0.015379	0.605786	-0.795621	-0.003089	-0.010364	-0.011774	0.999877	
4012														-0.139287	-0.083292	9.758490	-0.795583	-0.605649	-0.015376	0.605755	-0.795645	-0.003029	-0.010400	-0.011724	0.999877	
4013														-0.143128	-0.096865	9.772987	-0.795606	-0.605619	-0.015374	0.605724	-0.795669	-0.002953	-0.010444	-0.011661	0.999877	
4014														-0.126174	-0.083875	9.759092	-0.795485	-0.605779	-0.015357	0.605882	-0.795550	-0.002780	-0.010533	-0.011517	0.999878	
4015														-0.175959	-0.103062	9.771652	-0.795389	-0.605906	-0.015307	0.606007	-0.795454	-0.002699	-0.010541	-0.011423	0.999879	
4016														-0.499326	-0.309853	9.787049	-0.794439	-0.607152	-0.015284	0.607253	-0.794504	-0.002641	-0.010539	-0.011379	0.999880	
4017														-0.196957	-0.053676	9.770846	-0.793568	-0.608288	-0.015349	0.608390	-0.793634	-0.002696	-0.010542	-0.011477	0.999879	
4018														-0.103990	0.048037	9.760289	-0.792718	-0.609393	-0.015452	0.609495	-0.792786	-0.002569	-0.010685	-0.011455	0.999877	
4019														0.002066	0.089157	9.823587	-0.792312	-0.609918	-0.015535	0.610016	-0.792387	-0.002057	-0.011055	-0.011106	0.999877	
4020														0.173261	-0.133573	9.713394	-0.792170	-0.610105	-0.015456	0.610205	-0.792241	-0.002278	-0.010855	-0.011236	0.999878	
4021														-0.103817	-0.098207	9.745536	-0.791963	-0.610374	-0.015446	0.610473	-0.792034	-0.002287	-0.010838	-0.011241	0.999878	
4022														-0.570388	-0.117159	9.769594	-0.791841	-0.610532	-0.015423	0.610631	-0.791912	-0.002267	-0.010829	-0.011213	0.999878	
4023														-0.492160	-0.027779	9.743717	-0.791321	-0.611207	-0.015394	0.611309	-0.791388	-0.002587	-0.010601	-0.011458	0.999878	
4024														-0.022017	-0.069759	9.763610	-0.790579	-0.612167	-0.015368	0.612270	-0.790644	-0.002718	-0.010487	-0.011558	0.999878	
4025														-0.150723	-0.046677	9.743512	-0.789236	-0.613898	-0.015396	0.614001	-0.789301	-0.002697	-0.010496	-0.011582	0.999878	
4026														0.245273	-0.072329	9.774935	-0.788292	-0.615108	-0.015386	0.615212	-0.788357	-0.002701	-0.010468	-0.011594	0.999878	
4027														-0.196221	-0.127399	9.756144	-0.787590	-0.616006	-0.015418	0.616108	-0.787658	-0.002499	-0.010605	-0.011467	0.999878	
4028														0.055235	-0.125388	9.766911	-0.787282	-0.616401	-0.015397	0.616501	-0.787351	-0.002321	-0.010692	-0.011320	0.999879	
4029														-0.158145	-0.147133	9.787125	-0.786962	-0.616810	-0.015383	0.616910	-0.787030	-0.002387	-0.010634	-0.011369	0.999879	
4030														-0.046334	-0.106913	9.777278	-0.786493	-0.617408	-0.015383	0.617508	-0.786561	-0.002389	-0.010624	-0.011378	0.999879	
4031														-0.023767	-0.066077	9.763632	-0.786245	-0.617723	-0.015401	0.617824	-0.786313	-0.002444	-0.010600	-0.011436	0.999878	
4032														-0.146815	-0.090104	9.772997	-0.785838	-0.618241	-0.015412	0.618343	-0.785904	-0.002585	-0.010514	-0.011561	0.999878	
4033														-0.231853	-0.075965	9.754711	-0.785493	-0.618680	-0.015365	0.618783	-0.785557	-0.002711	-0.010393	-0.011637	0.999878	
4034														-0.611542	-0.205569	9.797014	-0.784590	-0.619825	-0.015351	0.619930	-0.784652	-0.002838	-0.010286	-0.011743	0.999878	
4035														0.012656	-0.135624	9.808806	-0.782655	-0.622266	-0.015361	0.622378	-0.782709	-0.003487	-0.009853	-0.012290	0.999876	
4036														0.334520	0.061993	9.720004	-0.781682	-0.623488	-0.015377	0.623601	-0.781734	-0.003675	-0.009729	-0.012461	0.999875	
4037														-0.121576	-0.086773	9.759125	-0.781369	-0.623880	-0.015376	0.623995	-0.781419	-0.003803	-0.009643	-0.012566	0.999875	
4038														-0.060469	-0.082214	9.747019	-0.781305	-0.623959	-0.015399	0.624075	-0.781355	-0.003847	-0.009632	-0.012616	0.999874	
4039														-0.124273	-0.101212	9.758985	-0.781339	-0.623915	-0.015445	0.624030	-0.781391	-0.003695	-0.009763	-0.012525	0.999874	
4040														-0.123150	-0.086050	9.773756	-0.781339	-0.623917	-0.015424	0.624031	-0.781391	-0.003709	-0.009738	-0.012523	0.999874	
4041														-0.137621	-0.083416	9.773157	-0.781375	-0.623871	-0.015435	0.623986	-0.781427	-0.003710	-0.009747	-0.012530	0.999874	
4042														-0.126332	-0.099935	9.788260	-0.781374	-0.623873	-0.015430	0.623987	-0.781426	-0.003693	-0.009753	-0.012514	0.999874	
4043														-0.109036	-0.087417	9.774361	-0.781372	-0.623874	-0.015425	0.623989	-0.781425	-0.003692	-0.009750	-0.012510	0.999874	
4044														-0.111532	-0.101695	9.774228	-0.781371	-0.623876	-0.015450	0.623991	-0.781423	-0.003707	-0.009760	-0.012537	0.999874	
4045														-0.126163	-0.099102	9.773626	-0.781382	-0.623862	-0.015445	0.623977	-0.781434	-0.003691	-0.009766	-0.012522	0.999874	
4046														-0.113629	-0.115442	9.759463	-0.781393	-0.623848	-0.015440	0.623962	-0.781446	-0.003675	-0.009773	-0.012506	0.999874	
4047														-0.110224	-0.086263	9.789001	-0.781380	-0.623865	-0.015435	0.623980	-0.781432	-0.003689	-0.009760	-0.012513	0.999874	
4048														-0.110143	-0.085995	9.789004	-0.781379	-0.623866	-0.015414	0.623981	-0.781431	-0.003702	-0.009735	-0.012511	0.999874	
4049														-0.123988	-0.083226	9.773769	-0.781353	-0.623899	-0.015408	0.624013	-0.781405	-0.003685	-0.009741	-0.012494	0.999874	
4050														-0.110733	-0.099641	9.744972	-0.781352	-0.623900	-0.015403	0.624015	-0.781404	-0.003699	-0.009728	-0.012502	0.999875	
4051														-0.126436	-0.097080	9.773643	-0.781363	-0.623886	-0.015398	0.624000	-0.781415	-0.003698	-0.009725	-0.012498	0.999875	
4052														-0.124202	-0.082131	9.773776	-0.781375	-0.623872	-0.015378	0.623986	-0.781427	-0.003666	-0.009730	-0.012461	0.999875	
4053														-0.109304	-0.083903	9.759746	-0.781386	-0.623858	-0.015374	0.623972	-0.781439	-0.003650	-0.009737	-0.012445	0.999875	
4054														-0.102528	-0.129279	9.774604	-0.781373	-0.623875	-0.015353	0.623988	-0.781425	-0.003663	-0.009712	-0.012442	0.999875	
4055														-0.111634	-0.097660	9.759625	-0.781385	-0.623861	-0.015348	0.623974	-0.781436	-0.003662	-0.009708	-0.012438	0.999876	
4056														-0.141216	-0.092665	9.773056	-0.781371	-0.623878	-0.015342	0.623991	-0.781423	-0.003661	-0.009705	-0.012434	0.999876	
4057														-0.112452	-0.097075	9.774264	-0.781382	-0.623864	-0.015352	0.623977	-0.781434	-0.003660	-0.009714	-0.012439	0.999875	
4058														-0.125643	-0.094457	9.744392	-0.781369	-0.623881	-0.015331	0.623994	-0.781420	-0.003688	-0.009679	-0.012448	0.999876	
4059														-0.126899	-0.094239	9.773665	-0.781367	-0.623883	-0.015341	0.623996	-0.781419	-0.003672	-0.009697	-0.012442	0.999876	
4060														-0.126525	-0.094026	9.759028	-0.781353	-0.623900	-0.015366	0.624014	-0.781405	-0.003687	-0.009707	-0.012469	0.999875	
4061														-0.126557	-0.093857	9.759029	-0.781353	-0.623901	-0.015345	0.624015	-0.781404	-0.003700	-0.009682	-0.012466	0.999875	
4062														-0.115647	-0.110389	9.788784	-0.781351	-0.623903	-0.015340	0.624016	-0.781403	-0.003698	-0.009679	-0.012462	0.999876	
4063														-0.127150	-0.093079	9.773673	-0.781351	-0.623904	-0.015304	0.624017	-0.781402	-0.003681	-0.009663	-0.012426	0.999876	
4064														-0.126436	-0.092578	9.759043	-0.781350	-0.623905	-0.015283	0.624018	-0.781401	-0.003694	-0.009638	-0.012423	0.999876	
4065														-0.114344	-0.109101	9.759527	-0.781336	-0.623923	-0.015293	0.624036	-0.781387	-0.003693	-0.009646	-0.012429	0.999876	
4066														-0.097734	-0.096533	9.760258	-0.781373	-0.623877	-0.015275	0.623990	-0.781424	-0.003661	-0.009652	-0.012392	0.999877	
4067														-0.129703	-0.105964	9.773563	-0.781372	-0.623879	-0.015284	0.623992	-0.781422	-0.003675	-0.009650	-0.012409	0.999876	
4068														-0.113061	-0.093658	9.774291	-0.781357	-0.623896	-0.015294	0.624009	-0.781409	-0.003674	-0.009659	-0.012414	0.999876	
4069														-0.098846	-0.095697	9.774897	-0.781356	-0.623898	-0.015304	0.624011	-0.781407	-0.003657	-0.009677	-0.012408	0.999876	
4070														-0.130202	-0.105216	9.773564	-0.781367	-0.623884	-0.015299	0.623997	-0.781418	-0.003671	-0.009664	-0.012415	0.999876	
4071														-0.099002	-0.095140	9.774901	-0.781366	-0.623885	-0.015294	0.623998	-0.781417	-0.003670	-0.009661	-0.012411	0.999876	
4072														-0.116580	-0.107059	9.788809	-0.781352	-0.623903	-0.015319	0.624016	-0.781403	-0.003669	-0.009681	-0.012426	0.999876	
4073														-0.116091	-0.106755	9.774176	-0.781363	-0.623889	-0.015299	0.624001	-0.781415	-0.003667	-0.009667	-0.012412	0.999876	
4074														-0.130607	-0.103995	9.773572	-0.781387	-0.623859	-0.015295	0.623972	-0.781439	-0.003651	-0.009674	-0.012396	0.999876	
4075														-0.130061	-0.103645	9.758939	-0.781361	-0.623892	-0.015288	0.624004	-0.781412	-0.003663	-0.009661	-0.012403	0.999876	
4076														-0.097729	-0.093505	9.731004	-0.781359	-0.623894	-0.015299	0.624006	-0.781411	-0.003647	-0.009679	-0.012396	0.999876	
4077														-0.117209	-0.105434	9.788820	-0.781345	-0.623911	-0.015309	0.624024	-0.781397	-0.003645	-0.009688	-0.012401	0.999876	
4078														-0.114448	-0.090610	9.774303	-0.781344	-0.623913	-0.015304	0.624025	-0.781396	-0.003628	-0.009695	-0.012385	0.999876	
4079														-0.114514	-0.090175	9.774306	-0.781356	-0.623899	-0.015284	0.624011	-0.781407	-0.003626	-0.009680	-0.012371	0.999877	
4080														-0.116961	-0.104357	9.774191	-0.781366	-0.623885	-0.015309	0.623997	-0.781418	-0.003626	-0.009701	-0.012386	0.999876	
4081														-0.129228	-0.087295	9.773699	-0.781378	-0.623871	-0.015289	0.623983	-0.781430	-0.003624	-0.009687	-0.012372	0.999877	
4082														-0.117157	-0.103641	9.774196	-0.781377	-0.623872	-0.015285	0.623984	-0.781429	-0.003607	-0.009694	-0.012356	0.999877	
4083														-0.117285	-0.103358	9.774198	-0.781363	-0.623890	-0.015294	0.624002	-0.781415	-0.003620	-0.009692	-0.012372	0.999876	
4084														-0.117260	-0.103139	9.774200	-0.781362	-0.623891	-0.015273	0.624003	-0.781414	-0.003633	-0.009668	-0.012369	0.999877	
4085														-0.117171	-0.102769	9.774205	-0.781374	-0.623877	-0.015253	0.623988	-0.781425	-0.003631	-0.009653	-0.012355	0.999877	
4086														-0.115450	-0.087999	9.788958	-0.781373	-0.623878	-0.015247	0.623990	-0.781424	-0.003645	-0.009641	-0.012362	0.999877	
4087														-0.131094	-0.099735	9.758966	-0.781397	-0.623849	-0.015244	0.623960	-0.781448	-0.003613	-0.009658	-0.012335	0.999877	
4088														-0.102980	-0.103929	9.774825	-0.781383	-0.623866	-0.015238	0.623977	-0.781434	-0.003611	-0.009655	-0.012330	0.999877	
4089														-0.129086	-0.084547	9.759081	-0.781394	-0.623852	-0.015249	0.623963	-0.781445	-0.003610	-0.009664	-0.012335	0.999877	
4090														-0.114611	-0.086639	9.759695	-0.781381	-0.623869	-0.015227	0.623980	-0.781432	-0.003637	-0.009630	-0.012343	0.999877	
4091														-0.117554	-0.100740	9.774222	-0.781404	-0.623839	-0.015223	0.623950	-0.781456	-0.003605	-0.009647	-0.012316	0.999878	
4092														-0.117725	-0.100297	9.774224	-0.781403	-0.623841	-0.015218	0.623952	-0.781454	-0.003603	-0.009644	-0.012311	0.999878	
4093														-0.116564	-0.100047	9.744955	-0.781414	-0.623827	-0.015228	0.623938	-0.781465	-0.003617	-0.009643	-0.012328	0.999878	
4094														-0.130775	-0.083186	9.788358	-0.781412	-0.623829	-0.015253	0.623940	-0.781464	-0.003616	-0.009664	-0.012343	0.999877	
4095														-0.131690	-0.082956	9.802991	-0.781410	-0.623831	-0.015264	0.623942	-0.781462	-0.003600	-0.009683	-0.012337	0.999877	
4096														-0.117227	-0.099341	9.744955	-0.781422	-0.623817	-0.015259	0.623928	-0.781473	-0.003598	-0.009680	-0.012332	0.999877	
4097														-0.102799	-0.101369	9.745570	-0.781421	-0.623818	-0.015253	0.623930	-0.781472	-0.003611	-0.009668	-0.012339	0.999877	
4098														-0.118562	-0.098655	9.774231	-0.781432	-0.623804	-0.015234	0.623915	-0.781484	-0.003578	-0.009673	-0.012301	0.999878	
4099														-0.129605	-0.081588	9.744456	-0.781430	-0.623806	-0.015259	0.623918	-0.781482	-0.003607	-0.009674	-0.012339	0.999877	
4100														-0.104442	-0.100648	9.774844	-0.781441	-0.623792	-0.015284	0.623904	-0.781493	-0.003607	-0.009695	-0.012354	0.999877	
4101														-0.105253	-0.100425	9.789479	-0.781452	-0.623778	-0.015279	0.623890	-0.781504	-0.003605	-0.009692	-0.012350	0.999877	
4102														-0.131384	-0.081179	9.773723	-0.781450	-0.623780	-0.015304	0.623892	-0.781502	-0.003619	-0.009703	-0.012376	0.999876	
4103														-0.109222	-0.083208	9.584077	-0.781447	-0.623782	-0.015346	0.623895	-0.781500	-0.003587	-0.009755	-0.012378	0.999876	
4104														-0.112748	-0.114809	9.877168	-0.781429	-0.623802	-0.015493	0.623916	-0.781483	-0.003590	-0.009868	-0.012471	0.999874	
4105														-0.189961	-0.088679	10.035176	-0.781443	-0.623786	-0.015382	0.623899	-0.781497	-0.003554	-0.009804	-0.012374	0.999875	
4106														-0.135207	-0.077453	9.495034	-0.781444	-0.623788	-0.015317	0.623899	-0.781497	-0.003534	-0.009765	-0.012318	0.999876	
4107														-0.020610	-0.126890	9.749171	-0.781440	-0.623790	-0.015418	0.623903	-0.781494	-0.003535	-0.009844	-0.012382	0.999875	
4108														-0.067852	-0.105671	9.879136	-0.781438	-0.623792	-0.015428	0.623905	-0.781492	-0.003534	-0.009853	-0.012387	0.999875	
4109														-0.230079	-0.048802	9.710944	-0.781436	-0.623794	-0.015424	0.623907	-0.781491	-0.003501	-0.009870	-0.012359	0.999875	
4110														-0.113454	-0.112668	9.862542	-0.781421	-0.623812	-0.015479	0.623926	-0.781476	-0.003515	-0.009904	-0.012405	0.999874	
4111														-0.022519	-0.126203	9.763812	-0.781433	-0.623798	-0.015459	0.623911	-0.781487	-0.003513	-0.009890	-0.012390	0.999874	
4112														-0.148673	-0.090653	9.714440	-0.781431	-0.623800	-0.015471	0.623913	-0.781486	-0.003465	-0.009929	-0.012360	0.999874	
4113														-0.194999	-0.083523	9.771115	-0.781416	-0.623818	-0.015511	0.623931	-0.781472	-0.003464	-0.009961	-0.012385	0.999874	
4114														-0.095466	-0.099362	9.804725	-0.781388	-0.623851	-0.015537	0.623965	-0.781445	-0.003446	-0.009991	-0.012387	0.999873	
4115														-0.093869	-0.099102	9.760820	-0.781412	-0.623822	-0.015547	0.623936	-0.781468	-0.003445	-0.010001	-0.012393	0.999873	
4116														-0.138170	-0.092133	9.773587	-0.781409	-0.623824	-0.015588	0.623938	-0.781466	-0.003444	-0.010033	-0.012417	0.999873	
4117														-0.128124	-0.108710	9.818010	-0.781408	-0.623826	-0.015583	0.623940	-0.781465	-0.003442	-0.010030	-0.012412	0.999873	
4118														-0.108360	-0.096109	9.745563	-0.781419	-0.623812	-0.015578	0.623926	-0.781476	-0.003424	-0.010038	-0.012395	0.999873	
4119														-0.123626	-0.093498	9.759576	-0.781405	-0.623829	-0.015588	0.623943	-0.781462	-0.003422	-0.010047	-0.012400	0.999873	
4120														-0.137205	-0.076478	9.788325	-0.781441	-0.623784	-0.015584	0.623898	-0.781498	-0.003420	-0.010045	-0.012396	0.999873	
4121														-0.126048	-0.107312	9.759480	-0.781428	-0.623801	-0.015563	0.623915	-0.781485	-0.003417	-0.010031	-0.012380	0.999873	
4122														-0.136947	-0.090347	9.729690	-0.781439	-0.623787	-0.015573	0.623901	-0.781496	-0.003446	-0.010021	-0.012408	0.999873	
4123														-0.109383	-0.094774	9.760207	-0.781412	-0.623820	-0.015582	0.623934	-0.781469	-0.003443	-0.010029	-0.012413	0.999873	
4124														-0.123970	-0.092220	9.759584	-0.781424	-0.623806	-0.015577	0.623920	-0.781480	-0.003440	-0.010027	-0.012407	0.999873	
4125														-0.109796	-0.094145	9.760208	-0.781434	-0.623793	-0.015604	0.623907	-0.781491	-0.003409	-0.010068	-0.012399	0.999872	
4126														-0.112347	-0.108271	9.760109	-0.781445	-0.623779	-0.015599	0.623893	-0.781503	-0.003406	-0.010066	-0.012394	0.999873	
4127														-0.110108	-0.093527	9.760210	-0.781456	-0.623765	-0.015594	0.623879	-0.781514	-0.003419	-0.010054	-0.012401	0.999873	
4128														-0.124704	-0.091082	9.759585	-0.781442	-0.623783	-0.015619	0.623897	-0.781499	-0.003417	-0.010075	-0.012415	0.999872	
4129														-0.108857	-0.078688	9.774942	-0.781428	-0.623800	-0.015629	0.623914	-0.781485	-0.003414	-0.010084	-0.012419	0.999872	
4130														-0.130166	-0.119404	9.774028	-0.781427	-0.623802	-0.015594	0.623915	-0.781485	-0.003395	-0.010068	-0.012382	0.999873	
4131														-0.112185	-0.106712	9.745486	-0.781413	-0.623819	-0.015588	0.623933	-0.781471	-0.003392	-0.010066	-0.012377	0.999873	
4132														-0.125195	-0.089637	9.759592	-0.781424	-0.623805	-0.015599	0.623919	-0.781482	-0.003375	-0.010085	-0.012370	0.999873	
4133														-0.114498	-0.106077	9.789393	-0.781422	-0.623807	-0.015609	0.623921	-0.781480	-0.003372	-0.010095	-0.012374	0.999872	
4134														-0.141924	-0.086800	9.802870	-0.781421	-0.623809	-0.015605	0.623922	-0.781479	-0.003370	-0.010092	-0.012369	0.999873	
4135														-0.142928	-0.100901	9.773509	-0.781420	-0.623811	-0.015584	0.623924	-0.781478	-0.003367	-0.010079	-0.012354	0.999873	
4136														-0.125707	-0.088406	9.759597	-0.781405	-0.623828	-0.015609	0.623942	-0.781463	-0.003364	-0.010099	-0.012368	0.999873	
4137														-0.111578	-0.090257	9.760225	-0.781404	-0.623830	-0.015605	0.623943	-0.781462	-0.003316	-0.010127	-0.012328	0.999873	
4138														-0.112497	-0.089905	9.774859	-0.781402	-0.623832	-0.015631	0.623946	-0.781460	-0.003329	-0.010138	-0.012354	0.999872	
4139														-0.114838	-0.104259	9.774766	-0.781413	-0.623818	-0.015625	0.623932	-0.781472	-0.003342	-0.010126	-0.012360	0.999872	
4140														-0.129379	-0.101781	9.774139	-0.781399	-0.623836	-0.015635	0.623950	-0.781457	-0.003339	-0.010135	-0.012364	0.999872	
4141														-0.112163	-0.089281	9.760227	-0.781410	-0.623822	-0.015630	0.623936	-0.781469	-0.003336	-0.010133	-0.012359	0.999872	
4142														-0.128889	-0.101127	9.759509	-0.781409	-0.623824	-0.015610	0.623937	-0.781468	-0.003333	-0.010119	-0.012344	0.999873	
4143														-0.114396	-0.103054	9.760142	-0.781408	-0.623825	-0.015604	0.623938	-0.781466	-0.003345	-0.010107	-0.012350	0.999873	
4144														-0.099434	-0.105129	9.746137	-0.781393	-0.623843	-0.015629	0.623957	-0.781452	-0.003343	-0.010128	-0.012364	0.999872	
4145														-0.115401	-0.102577	9.774777	-0.781392	-0.623845	-0.015625	0.623958	-0.781451	-0.003324	-0.010136	-0.012347	0.999872	
4146														-0.127065	-0.085639	9.759604	-0.781403	-0.623831	-0.015634	0.623945	-0.781461	-0.003353	-0.010126	-0.012375	0.999872	
4147														-0.145083	-0.097793	9.788153	-0.781389	-0.623848	-0.015643	0.623962	-0.781447	-0.003365	-0.010125	-0.012390	0.999872	
4148														-0.115071	-0.102060	9.760145	-0.781400	-0.623835	-0.015654	0.623949	-0.781458	-0.003348	-0.010145	-0.012383	0.999872	
4149														-0.115257	-0.101826	9.760145	-0.781385	-0.623852	-0.015664	0.623966	-0.781444	-0.003360	-0.010144	-0.012399	0.999872	
4150														-0.114967	-0.098005	9.763827	-0.781384	-0.623854	-0.015666	0.623968	-0.781443	-0.003351	-0.010152	-0.012394	0.999872	
4151														-0.114678	-0.094184	9.767508	-0.781382	-0.623856	-0.015669	0.623970	-0.781441	-0.003343	-0.010159	-0.012389	0.999872	
4152														-0.130793	-0.098676	9.774152	-0.781393	-0.623842	-0.015665	0.623956	-0.781452	-0.003336	-0.010160	-0.012381	0.999872	
4153														-0.113474	-0.086067	9.760241	-0.781380	-0.623859	-0.015644	0.623973	-0.781439	-0.003332	-0.010146	-0.012365	0.999872	
4154														-0.135252	-0.127034	9.773983	-0.781391	-0.623845	-0.015653	0.623959	-0.781450	-0.003360	-0.010136	-0.012393	0.999872	
4155														-0.114923	-0.085700	9.789511	-0.781389	-0.623848	-0.015679	0.623962	-0.781448	-0.003343	-0.010167	-0.012396	0.999871	
4156														-0.129089	-0.083178	9.774242	-0.781387	-0.623850	-0.015690	0.623964	-0.781446	-0.003325	-0.010186	-0.012388	0.999871	
4157														-0.117140	-0.099541	9.774788	-0.781385	-0.623852	-0.015701	0.623966	-0.781445	-0.003307	-0.010206	-0.012381	0.999871	
4158														-0.132470	-0.096903	9.788790	-0.781383	-0.623854	-0.015696	0.623968	-0.781443	-0.003289	-0.010214	-0.012364	0.999871	
4159														-0.117480	-0.098652	9.774793	-0.781382	-0.623855	-0.015677	0.623969	-0.781442	-0.003270	-0.010210	-0.012337	0.999872	
4160														-0.117634	-0.097997	9.774798	-0.781381	-0.623857	-0.015658	0.623970	-0.781442	-0.003220	-0.010227	-0.012286	0.999872	
4161														-0.129361	-0.081023	9.759613	-0.781379	-0.623859	-0.015681	0.623973	-0.781439	-0.003264	-0.010218	-0.012335	0.999872	
4162														-0.132307	-0.095262	9.774165	-0.781366	-0.623877	-0.015662	0.623990	-0.781426	-0.003229	-0.010224	-0.012296	0.999872	
4163														-0.133053	-0.094649	9.788804	-0.781365	-0.623879	-0.015642	0.623991	-0.781425	-0.003210	-0.010220	-0.012269	0.999873	
4164														-0.132470	-0.094124	9.774174	-0.781376	-0.623864	-0.015623	0.623976	-0.781437	-0.003191	-0.010217	-0.012242	0.999873	
4165														-0.131839	-0.093658	9.759544	-0.781376	-0.623866	-0.015603	0.623978	-0.781436	-0.003188	-0.010204	-0.012226	0.999873	
4166														-0.131856	-0.093279	9.759547	-0.781374	-0.623868	-0.015597	0.623980	-0.781434	-0.003184	-0.010202	-0.012220	0.999873	
4167														-0.117409	-0.095123	9.760187	-0.781398	-0.623838	-0.015577	0.623950	-0.781458	-0.003181	-0.010189	-0.012205	0.999874	
4168														-0.119637	-0.109120	9.760112	-0.781397	-0.623840	-0.015557	0.623951	-0.781457	-0.003162	-0.010185	-0.012178	0.999874	
4169														-0.117540	-0.094253	9.760194	-0.781383	-0.623857	-0.015567	0.623968	-0.781443	-0.003159	-0.010195	-0.012182	0.999874	
4170														-0.120379	-0.108600	9.774751	-0.781382	-0.623859	-0.015561	0.623970	-0.781442	-0.003201	-0.010163	-0.012211	0.999874	
4171														-0.118075	-0.093748	9.774834	-0.781382	-0.623860	-0.015527	0.623971	-0.781441	-0.003167	-0.010158	-0.012163	0.999874	
4172														-0.131365	-0.090976	9.744933	-0.781380	-0.623863	-0.015522	0.623973	-0.781440	-0.003148	-0.010166	-0.012145	0.999875	
4173														-0.125216	-0.095387	9.756210	-0.781372	-0.623872	-0.015509	0.623982	-0.781432	-0.003146	-0.010157	-0.012136	0.999875	
4174														-0.119067	-0.099798	9.767488	-0.781365	-0.623882	-0.015496	0.623992	-0.781425	-0.003144	-0.010148	-0.012126	0.999875	
4175														-0.120545	-0.106483	9.774772	-0.781376	-0.623868	-0.015492	0.623978	-0.781436	-0.003136	-0.010150	-0.012117	0.999875	
4176														-0.119052	-0.091650	9.789484	-0.781388	-0.623854	-0.015487	0.623964	-0.781447	-0.003133	-0.010148	-0.012112	0.999875	
4177														-0.120104	-0.105892	9.760142	-0.781348	-0.623903	-0.015496	0.624013	-0.781408	-0.003130	-0.010156	-0.012115	0.999875	
4178														-0.135192	-0.103547	9.774140	-0.781347	-0.623905	-0.015490	0.624015	-0.781406	-0.003172	-0.010125	-0.012144	0.999875	
4179														-0.117165	-0.091158	9.745586	-0.781358	-0.623890	-0.015486	0.624000	-0.781418	-0.003169	-0.010124	-0.012139	0.999875	
4180														-0.134501	-0.103137	9.759511	-0.781332	-0.623924	-0.015479	0.624034	-0.781391	-0.003180	-0.010111	-0.012144	0.999875	
4181														-0.121444	-0.105010	9.789419	-0.781330	-0.623926	-0.015490	0.624036	-0.781389	-0.003161	-0.010131	-0.012136	0.999875	
4182														-0.121670	-0.104614	9.789421	-0.781329	-0.623928	-0.015486	0.624037	-0.781388	-0.003142	-0.010140	-0.012119	0.999875	
4183														-0.132774	-0.087592	9.759588	-0.781315	-0.623945	-0.015480	0.624055	-0.781374	-0.003139	-0.010137	-0.012113	0.999875	
4184														-0.121227	-0.104023	9.774790	-0.781313	-0.623947	-0.015490	0.624057	-0.781372	-0.003151	-0.010137	-0.012128	0.999875	
4185														-0.120627	-0.103987	9.760156	-0.781349	-0.623902	-0.015500	0.624012	-0.781408	-0.003179	-0.010128	-0.012156	0.999875	
4186														-0.117646	-0.089113	9.745599	-0.781349	-0.623903	-0.015434	0.624013	-0.781408	-0.003158	-0.010091	-0.012099	0.999876	
4187														-0.122412	-0.102901	9.804072	-0.781348	-0.623905	-0.015446	0.624014	-0.781407	-0.003140	-0.010111	-0.012091	0.999876	
4188														-0.106137	-0.104789	9.760811	-0.781347	-0.623906	-0.015426	0.624015	-0.781406	-0.003136	-0.010097	-0.012076	0.999876	
4189														-0.133589	-0.085453	9.774238	-0.781345	-0.623909	-0.015421	0.624017	-0.781404	-0.003117	-0.010105	-0.012058	0.999876	
4190														-0.122983	-0.116255	9.760109	-0.781343	-0.623911	-0.015415	0.624019	-0.781403	-0.003114	-0.010103	-0.012052	0.999876	
4191														-0.107149	-0.103700	9.775452	-0.781328	-0.623929	-0.015441	0.624038	-0.781388	-0.003111	-0.010124	-0.012066	0.999876	
4192														-0.135737	-0.099106	9.759536	-0.781352	-0.623900	-0.015452	0.624009	-0.781411	-0.003094	-0.010144	-0.012059	0.999876	
4193														-0.121927	-0.100888	9.774814	-0.781326	-0.623932	-0.015416	0.624041	-0.781385	-0.003103	-0.010110	-0.012045	0.999876	
4194														-0.150840	-0.096293	9.773535	-0.781324	-0.623934	-0.015442	0.624043	-0.781384	-0.003116	-0.010122	-0.012071	0.999876	
4195														-0.106272	-0.102634	9.746191	-0.781336	-0.623921	-0.015422	0.624029	-0.781395	-0.003097	-0.010118	-0.012044	0.999876	
4196														-0.107032	-0.102113	9.760829	-0.781346	-0.623907	-0.015418	0.624015	-0.781406	-0.003078	-0.010127	-0.012027	0.999876	
4197														-0.109927	-0.116132	9.775402	-0.781358	-0.623893	-0.015398	0.624001	-0.781417	-0.003074	-0.010115	-0.012011	0.999877	
4198														-0.122931	-0.099100	9.789462	-0.781356	-0.623895	-0.015409	0.624003	-0.781416	-0.003071	-0.010125	-0.012014	0.999877	
4199														-0.120935	-0.084381	9.789526	-0.781354	-0.623897	-0.015419	0.624006	-0.781414	-0.003067	-0.010135	-0.012018	0.999876	
4200														-0.122601	-0.098615	9.774829	-0.781340	-0.623915	-0.015414	0.624023	-0.781400	-0.003063	-0.010133	-0.012012	0.999877	
4201														-0.124797	-0.112721	9.774770	-0.781352	-0.623901	-0.015394	0.624009	-0.781411	-0.003059	-0.010120	-0.011996	0.999877	
4202														-0.120505	-0.083315	9.774899	-0.781351	-0.623902	-0.015390	0.624010	-0.781411	-0.003040	-0.010129	-0.011979	0.999877	
4203														-0.122763	-0.097574	9.774838	-0.781337	-0.623920	-0.015399	0.624028	-0.781396	-0.003067	-0.010119	-0.012006	0.999877	
4204														-0.105558	-0.085178	9.760909	-0.781335	-0.623922	-0.015409	0.624030	-0.781395	-0.003064	-0.010129	-0.012010	0.999877	
4205														-0.109267	-0.099409	9.790114	-0.781332	-0.623924	-0.015434	0.624033	-0.781392	-0.003061	-0.010150	-0.012024	0.999876	
4206														-0.125500	-0.111463	9.774775	-0.781319	-0.623941	-0.015430	0.624050	-0.781379	-0.003042	-0.010158	-0.012006	0.999876	
4207														-0.106746	-0.084226	9.775545	-0.781318	-0.623943	-0.015410	0.624051	-0.781378	-0.003038	-0.010145	-0.011991	0.999877	
4208														-0.139414	-0.108618	9.759504	-0.781341	-0.623913	-0.015420	0.624021	-0.781401	-0.003051	-0.010146	-0.012007	0.999876	
4209														-0.138667	-0.093780	9.788833	-0.781340	-0.623916	-0.015416	0.624023	-0.781400	-0.003032	-0.010154	-0.011989	0.999877	
4210														-0.150495	-0.076717	9.773615	-0.781338	-0.623918	-0.015412	0.624026	-0.781398	-0.003013	-0.010163	-0.011972	0.999877	
4211														-0.123299	-0.095186	9.760213	-0.781336	-0.623920	-0.015423	0.624027	-0.781397	-0.002995	-0.010183	-0.011964	0.999877	
4212														-0.110250	-0.096995	9.790127	-0.781335	-0.623922	-0.015417	0.624029	-0.781395	-0.003006	-0.010172	-0.011969	0.999877	
4213														-0.109084	-0.096787	9.760861	-0.781320	-0.623940	-0.015428	0.624048	-0.781380	-0.002987	-0.010191	-0.011962	0.999877	
4214														-0.109860	-0.096466	9.775496	-0.781330	-0.623927	-0.015422	0.624035	-0.781391	-0.002998	-0.010180	-0.011967	0.999877	
4215														-0.124254	-0.094035	9.774853	-0.781330	-0.623929	-0.015402	0.624036	-0.781390	-0.003010	-0.010157	-0.011963	0.999877	
4216														-0.124862	-0.093568	9.789492	-0.781329	-0.623930	-0.015382	0.624037	-0.781389	-0.002990	-0.010154	-0.011935	0.999877	
4217														-0.125957	-0.107742	9.760169	-0.781350	-0.623902	-0.015408	0.624009	-0.781411	-0.002972	-0.010186	-0.011937	0.999877	
4218														-0.139745	-0.090675	9.788847	-0.781337	-0.623919	-0.015388	0.624026	-0.781398	-0.002967	-0.010173	-0.011921	0.999877	
4219														-0.114477	-0.123528	9.775402	-0.781348	-0.623906	-0.015369	0.624012	-0.781409	-0.002949	-0.010170	-0.011894	0.999878	
4220														-0.112325	-0.108554	9.775462	-0.781335	-0.623923	-0.015348	0.624029	-0.781396	-0.002944	-0.010157	-0.011878	0.999878	
4221														-0.124721	-0.091681	9.774870	-0.781333	-0.623925	-0.015374	0.624032	-0.781393	-0.002956	-0.010169	-0.011903	0.999877	
4222														-0.126967	-0.106050	9.774816	-0.781344	-0.623911	-0.015369	0.624017	-0.781405	-0.002967	-0.010158	-0.011909	0.999877	
4223														-0.140760	-0.103615	9.759539	-0.781330	-0.623929	-0.015348	0.624035	-0.781391	-0.002963	-0.010144	-0.011893	0.999878	
4224														-0.110428	-0.093006	9.775523	-0.781354	-0.623899	-0.015360	0.624005	-0.781415	-0.002945	-0.010165	-0.011886	0.999878	
4225														-0.110105	-0.092543	9.760890	-0.781352	-0.623901	-0.015357	0.624007	-0.781413	-0.002895	-0.010194	-0.011845	0.999878	
4226														-0.121950	-0.075502	9.745661	-0.781351	-0.623903	-0.015352	0.624008	-0.781412	-0.002907	-0.010182	-0.011851	0.999878	
4227														-0.113759	-0.106329	9.790111	-0.781362	-0.623889	-0.015362	0.623995	-0.781423	-0.002919	-0.010183	-0.011866	0.999878	
4228														-0.109741	-0.091749	9.746261	-0.781348	-0.623907	-0.015357	0.624013	-0.781409	-0.002915	-0.010181	-0.011860	0.999878	
4229														-0.111914	-0.105964	9.746213	-0.781358	-0.623894	-0.015351	0.624000	-0.781419	-0.002926	-0.010170	-0.011866	0.999878	
4230														-0.112588	-0.105644	9.760850	-0.781357	-0.623896	-0.015346	0.624002	-0.781418	-0.002922	-0.010168	-0.011859	0.999878	
4231														-0.113253	-0.105218	9.775488	-0.781356	-0.623898	-0.015326	0.624003	-0.781416	-0.002918	-0.010156	-0.011843	0.999878	
4232														-0.128507	-0.102742	9.789474	-0.781340	-0.623916	-0.015351	0.624022	-0.781401	-0.002915	-0.010177	-0.011857	0.999878	
4233														-0.098487	-0.106833	9.761506	-0.781339	-0.623918	-0.015347	0.624024	-0.781400	-0.002895	-0.010186	-0.011839	0.999878	
4234														-0.127509	-0.102214	9.760208	-0.781312	-0.623952	-0.015340	0.624058	-0.781373	-0.002906	-0.010173	-0.011844	0.999878	
4235														-0.112463	-0.104178	9.746226	-0.781334	-0.623924	-0.015351	0.624030	-0.781395	-0.002903	-0.010184	-0.011848	0.999878	
4236														-0.111756	-0.089311	9.775543	-0.781345	-0.623911	-0.015347	0.624016	-0.781406	-0.002899	-0.010183	-0.011842	0.999878	
4237														-0.111838	-0.089085	9.775544	-0.781343	-0.623913	-0.015356	0.624019	-0.781404	-0.002911	-0.010183	-0.011857	0.999878	
4238														-0.129234	-0.101107	9.789481	-0.781342	-0.623914	-0.015352	0.624020	-0.781403	-0.002892	-0.010192	-0.011840	0.999878	
4239														-0.128157	-0.100810	9.760214	-0.781327	-0.623932	-0.015363	0.624038	-0.781389	-0.002873	-0.010212	-0.011832	0.999878	
4240														-0.128335	-0.100472	9.760216	-0.781340	-0.623917	-0.015359	0.624022	-0.781401	-0.002870	-0.010211	-0.011827	0.999878	
4241														-0.126117	-0.085713	9.760264	-0.781302	-0.623965	-0.015337	0.624070	-0.781363	-0.002895	-0.010178	-0.011834	0.999878	
4242														-0.113753	-0.102222	9.760873	-0.781299	-0.623968	-0.015362	0.624074	-0.781360	-0.002907	-0.010189	-0.011859	0.999878	
4243														-0.100660	-0.104026	9.790794	-0.781311	-0.623954	-0.015343	0.624059	-0.781372	-0.002903	-0.010177	-0.011843	0.999878	
4244														-0.115205	-0.101460	9.790146	-0.781537	-0.623666	-0.015516	0.623775	-0.781598	-0.003009	-0.010251	-0.012030	0.999875	
4245														-0.099544	-0.103305	9.761533	-0.781525	-0.623681	-0.015510	0.623790	-0.781586	-0.003004	-0.010249	-0.012023	0.999875	
4246														-0.127970	-0.098713	9.745596	-0.781538	-0.623665	-0.015507	0.623773	-0.781600	-0.002985	-0.010259	-0.012005	0.999875	
4247														-0.127769	-0.083740	9.789544	-0.781544	-0.623657	-0.015486	0.623766	-0.781606	-0.003010	-0.010227	-0.012012	0.999876	
4248														-0.116805	-0.114535	9.775484	-0.781540	-0.623663	-0.015467	0.623771	-0.781601	-0.002990	-0.010225	-0.011985	0.999876	
4249														-0.113945	-0.099828	9.760895	-0.781541	-0.623662	-0.015461	0.623770	-0.781602	-0.003031	-0.010194	-0.012013	0.999876	
4250														-0.113814	-0.099617	9.760899	-0.781529	-0.623678	-0.015441	0.623786	-0.781589	-0.003026	-0.010181	-0.011996	0.999876	
4251														-0.116547	-0.113626	9.775498	-0.781529	-0.623679	-0.015421	0.623786	-0.781589	-0.003021	-0.010169	-0.011980	0.999877	
4252														-0.142749	-0.094566	9.759602	-0.781543	-0.623661	-0.015416	0.623769	-0.781603	-0.003017	-0.010168	-0.011974	0.999877	
4253														-0.114452	-0.098268	9.775546	-0.781542	-0.623663	-0.015382	0.623771	-0.781602	-0.002997	-0.010154	-0.011937	0.999877	
4254														-0.128346	-0.095770	9.760263	-0.781552	-0.623651	-0.015394	0.623758	-0.781612	-0.002993	-0.010165	-0.011941	0.999877	
4255														-0.117476	-0.112037	9.790146	-0.781549	-0.623654	-0.015405	0.623761	-0.781609	-0.002989	-0.010176	-0.011945	0.999877	
4256														-0.114723	-0.097220	9.775553	-0.781562	-0.623638	-0.015370	0.623745	-0.781623	-0.002984	-0.010152	-0.011919	0.999877	
4257														-0.146382	-0.107265	9.788845	-0.781585	-0.623609	-0.015395	0.623716	-0.781645	-0.003028	-0.010145	-0.011968	0.999877	
4258														-0.116311	-0.111486	9.760884	-0.781570	-0.623628	-0.015407	0.623735	-0.781630	-0.002993	-0.010176	-0.011949	0.999877	
4259														-0.114316	-0.096603	9.760924	-0.781569	-0.623629	-0.015386	0.623736	-0.781629	-0.003003	-0.010153	-0.011944	0.999877	
4260														-0.117042	-0.110610	9.775526	-0.781568	-0.623631	-0.015367	0.623737	-0.781628	-0.002983	-0.010151	-0.011917	0.999877	
4261														-0.117106	-0.110174	9.775530	-0.781566	-0.623634	-0.015363	0.623740	-0.781626	-0.002979	-0.010151	-0.011911	0.999878	
4262														-0.130202	-0.093177	9.789547	-0.781579	-0.623618	-0.015359	0.623724	-0.781639	-0.002975	-0.010150	-0.011905	0.999878	
4263														-0.129615	-0.092802	9.774916	-0.781565	-0.623635	-0.015339	0.623741	-0.781625	-0.002954	-0.010147	-0.011877	0.999878	
4264														-0.117195	-0.108873	9.775544	-0.781577	-0.623622	-0.015305	0.623727	-0.781637	-0.002949	-0.010124	-0.011851	0.999879	
4265														-0.143300	-0.089747	9.759639	-0.781563	-0.623639	-0.015285	0.623744	-0.781623	-0.002944	-0.010111	-0.011835	0.999879	
4266														-0.116524	-0.108230	9.760918	-0.781561	-0.623641	-0.015310	0.623746	-0.781621	-0.002956	-0.010124	-0.011860	0.999878	
4267														-0.116765	-0.108045	9.760917	-0.781560	-0.623642	-0.015322	0.623748	-0.781620	-0.002937	-0.010144	-0.011852	0.999878	
4268														-0.132027	-0.105596	9.774897	-0.781546	-0.623660	-0.015317	0.623766	-0.781606	-0.002947	-0.010133	-0.011857	0.999878	
4269														-0.131388	-0.105280	9.760267	-0.781545	-0.623661	-0.015298	0.623767	-0.781605	-0.002928	-0.010131	-0.011830	0.999879	
4270														-0.132105	-0.104780	9.774905	-0.781531	-0.623679	-0.015293	0.623784	-0.781591	-0.002923	-0.010130	-0.011824	0.999879	
4271														-0.117848	-0.106484	9.775562	-0.781529	-0.623681	-0.015305	0.623786	-0.781590	-0.002888	-0.010161	-0.011804	0.999879	
4272														-0.131812	-0.104274	9.760272	-0.781527	-0.623683	-0.015315	0.623789	-0.781588	-0.002930	-0.010142	-0.011843	0.999878	
4273														-0.117272	-0.106421	9.760929	-0.781539	-0.623668	-0.015325	0.623774	-0.781599	-0.002957	-0.010134	-0.011870	0.999878	
4274														-0.117456	-0.106188	9.760930	-0.781523	-0.623688	-0.015336	0.623793	-0.781584	-0.002923	-0.010164	-0.011851	0.999878	
4275														-0.116179	-0.091076	9.775595	-0.781548	-0.623658	-0.015303	0.623763	-0.781608	-0.002903	-0.010150	-0.011814	0.999879	
4276														-0.118948	-0.105129	9.790205	-0.781547	-0.623659	-0.015313	0.623764	-0.781607	-0.002914	-0.010151	-0.011830	0.999878	
4277														-0.133520	-0.102916	9.789547	-0.781558	-0.623645	-0.015324	0.623750	-0.781618	-0.002926	-0.010153	-0.011845	0.999878	
4278														-0.117026	-0.090287	9.790233	-0.781569	-0.623630	-0.015320	0.623736	-0.781630	-0.002922	-0.010152	-0.011840	0.999878	
4279														-0.115945	-0.090027	9.760967	-0.781566	-0.623634	-0.015332	0.623739	-0.781627	-0.002888	-0.010183	-0.011821	0.999878	
4280														-0.129889	-0.087514	9.745678	-0.781578	-0.623620	-0.015298	0.623725	-0.781639	-0.002883	-0.010160	-0.011795	0.999879	
4281														-0.132539	-0.101469	9.760292	-0.781565	-0.623637	-0.015278	0.623741	-0.781625	-0.002878	-0.010147	-0.011779	0.999879	
4282														-0.133169	-0.101182	9.774928	-0.781576	-0.623623	-0.015288	0.623728	-0.781636	-0.002905	-0.010138	-0.011806	0.999879	
4283														-0.133807	-0.101001	9.789563	-0.781563	-0.623639	-0.015283	0.623744	-0.781623	-0.002915	-0.010128	-0.011811	0.999879	
4284														-0.132518	-0.100865	9.760298	-0.781561	-0.623641	-0.015279	0.623746	-0.781621	-0.002911	-0.010127	-0.011805	0.999879	
4285														-0.117451	-0.102690	9.746326	-0.781560	-0.623644	-0.015274	0.623748	-0.781620	-0.002906	-0.010126	-0.011799	0.999879	
4286														-0.117457	-0.087592	9.790253	-0.781570	-0.623630	-0.015271	0.623735	-0.781631	-0.002887	-0.010136	-0.011781	0.999879	
4287														-0.117134	-0.087260	9.775619	-0.781554	-0.623650	-0.015298	0.623755	-0.781615	-0.002853	-0.010178	-0.011772	0.999879	
4288														-0.119500	-0.101414	9.775596	-0.781567	-0.623634	-0.015294	0.623738	-0.781628	-0.002849	-0.010178	-0.011766	0.999879	
4289														-0.133912	-0.099173	9.774939	-0.781565	-0.623636	-0.015288	0.623741	-0.781626	-0.002890	-0.010147	-0.011795	0.999879	
4290														-0.119292	-0.100938	9.775604	-0.781589	-0.623607	-0.015255	0.623711	-0.781650	-0.002870	-0.010134	-0.011758	0.999880	
4291														-0.133186	-0.098498	9.760314	-0.781563	-0.623640	-0.015265	0.623744	-0.781623	-0.002866	-0.010144	-0.011761	0.999879	
4292														-0.117415	-0.085823	9.775628	-0.781573	-0.623627	-0.015276	0.623732	-0.781633	-0.002878	-0.010146	-0.011777	0.999879	
4293														-0.136079	-0.112476	9.774929	-0.781572	-0.623629	-0.015257	0.623733	-0.781632	-0.002872	-0.010134	-0.011761	0.999879	
4294														-0.120246	-0.099643	9.790246	-0.781558	-0.623646	-0.015267	0.623751	-0.781618	-0.002868	-0.010144	-0.011765	0.999879	
4295														-0.119773	-0.099483	9.775613	-0.781556	-0.623648	-0.015278	0.623753	-0.781616	-0.002865	-0.010155	-0.011769	0.999879	
4296														-0.119243	-0.099275	9.760981	-0.781542	-0.623666	-0.015273	0.623770	-0.781603	-0.002860	-0.010154	-0.011762	0.999879	
4297														-0.102817	-0.086563	9.761662	-0.781579	-0.623619	-0.015285	0.623723	-0.781640	-0.002857	-0.010166	-0.011767	0.999879	
4298														-0.122291	-0.113189	9.775597	-0.781564	-0.623637	-0.015296	0.623742	-0.781625	-0.002853	-0.010176	-0.011771	0.999879	
4299														-0.121105	-0.098216	9.790250	-0.781563	-0.623639	-0.015293	0.623744	-0.781624	-0.002818	-0.010196	-0.011742	0.999879	
4300														-0.133037	-0.081281	9.774973	-0.781574	-0.623625	-0.015289	0.623729	-0.781635	-0.002814	-0.010196	-0.011736	0.999879	
4301														-0.149675	-0.093494	9.774294	-0.781584	-0.623612	-0.015300	0.623716	-0.781646	-0.002826	-0.010197	-0.011752	0.999879	
4302														-0.137940	-0.109712	9.789576	-0.781597	-0.623597	-0.015281	0.623701	-0.781658	-0.002821	-0.010186	-0.011736	0.999879	
4303														-0.120032	-0.097004	9.760994	-0.781609	-0.623582	-0.015262	0.623686	-0.781670	-0.002816	-0.010174	-0.011720	0.999880	
4304														-0.106887	-0.098636	9.790926	-0.781607	-0.623584	-0.015273	0.623688	-0.781668	-0.002827	-0.010175	-0.011735	0.999879	
4305														-0.119328	-0.081690	9.790281	-0.781605	-0.623587	-0.015238	0.623691	-0.781666	-0.002806	-0.010161	-0.011698	0.999880	
4306														-0.107490	-0.112284	9.761658	-0.781619	-0.623571	-0.015189	0.623674	-0.781680	-0.002800	-0.010127	-0.011662	0.999881	
4307														-0.132311	-0.078836	9.760361	-0.781616	-0.623575	-0.015214	0.623678	-0.781676	-0.002813	-0.010139	-0.011687	0.999880	
4308														-0.119307	-0.095255	9.746379	-0.781627	-0.623562	-0.015195	0.623665	-0.781687	-0.002808	-0.010127	-0.011671	0.999881	
4309														-0.119984	-0.094795	9.761016	-0.781625	-0.623563	-0.015191	0.623666	-0.781686	-0.002803	-0.010126	-0.011665	0.999881	
4310														-0.123482	-0.108748	9.790273	-0.781625	-0.623564	-0.015188	0.623667	-0.781685	-0.002784	-0.010136	-0.011648	0.999881	
4311														-0.109169	-0.110462	9.790939	-0.781599	-0.623597	-0.015198	0.623699	-0.781659	-0.002779	-0.010147	-0.011652	0.999881	
4312														-0.135002	-0.091724	9.760355	-0.781598	-0.623598	-0.015210	0.623700	-0.781659	-0.002761	-0.010168	-0.011644	0.999881	
4313														-0.104648	-0.080863	9.776331	-0.781597	-0.623600	-0.015175	0.623702	-0.781657	-0.002770	-0.010134	-0.011630	0.999881	
4314														-0.106656	-0.094833	9.776327	-0.781607	-0.623587	-0.015157	0.623688	-0.781668	-0.002735	-0.010142	-0.011591	0.999881	
4315														-0.109700	-0.108849	9.790951	-0.781591	-0.623606	-0.015199	0.623708	-0.781652	-0.002717	-0.010186	-0.011603	0.999881	
4316														-0.119718	-0.077634	9.775669	-0.781602	-0.623592	-0.015195	0.623694	-0.781664	-0.002713	-0.010185	-0.011597	0.999881	
4317														-0.107976	-0.108537	9.747055	-0.781587	-0.623612	-0.015174	0.623714	-0.781648	-0.002723	-0.010163	-0.011592	0.999881	
4318														-0.121101	-0.091626	9.761033	-0.781597	-0.623599	-0.015185	0.623701	-0.781658	-0.002719	-0.010174	-0.011596	0.999881	
4319														-0.092301	-0.095379	9.762367	-0.781596	-0.623601	-0.015182	0.623702	-0.781657	-0.002699	-0.010184	-0.011579	0.999881	
4320														-0.109731	-0.107461	9.776327	-0.781582	-0.623617	-0.015208	0.623719	-0.781644	-0.002696	-0.010206	-0.011593	0.999881	
4321														-0.122302	-0.090628	9.775668	-0.781566	-0.623637	-0.015188	0.623739	-0.781628	-0.002690	-0.010194	-0.011576	0.999881	
4322														-0.138809	-0.102872	9.774997	-0.781552	-0.623655	-0.015197	0.623757	-0.781614	-0.002717	-0.010184	-0.011603	0.999881	
4323														-0.136789	-0.088092	9.775005	-0.781551	-0.623657	-0.015179	0.623758	-0.781613	-0.002697	-0.010182	-0.011576	0.999881	
4324														-0.108543	-0.106472	9.747071	-0.781548	-0.623661	-0.015173	0.623763	-0.781609	-0.002708	-0.010171	-0.011581	0.999881	
4325														-0.135508	-0.087616	9.745744	-0.781547	-0.623663	-0.015169	0.623764	-0.781608	-0.002704	-0.010170	-0.011575	0.999881	
4326														-0.109913	-0.105745	9.776343	-0.781546	-0.623663	-0.015165	0.623764	-0.781608	-0.002715	-0.010160	-0.011581	0.999881	
4327														-0.121726	-0.089015	9.761049	-0.781522	-0.623694	-0.015160	0.623796	-0.781583	-0.002710	-0.010158	-0.011574	0.999881	
4328														-0.109998	-0.105029	9.776350	-0.781545	-0.623665	-0.015142	0.623766	-0.781606	-0.002690	-0.010157	-0.011547	0.999882	
4329														-0.108089	-0.090138	9.776355	-0.781553	-0.623654	-0.015153	0.623756	-0.781615	-0.002687	-0.010168	-0.011551	0.999882	
4330														-0.136368	-0.085734	9.760390	-0.781514	-0.623705	-0.015101	0.623805	-0.781575	-0.002680	-0.010131	-0.011515	0.999882	
4331														-0.140338	-0.099432	9.804294	-0.781525	-0.623691	-0.015098	0.623791	-0.781587	-0.002660	-0.010141	-0.011497	0.999882	
4332														-0.122615	-0.086752	9.775699	-0.781523	-0.623694	-0.015094	0.623794	-0.781584	-0.002656	-0.010141	-0.011491	0.999883	
4333														-0.123177	-0.090130	9.775700	-0.781516	-0.623703	-0.015089	0.623803	-0.781577	-0.002653	-0.010139	-0.011486	0.999883	
4334														-0.123739	-0.093508	9.775702	-0.781508	-0.623713	-0.015085	0.623813	-0.781569	-0.002651	-0.010136	-0.011482	0.999883	
4335														-0.109543	-0.102340	9.761744	-0.781495	-0.623729	-0.015050	0.623829	-0.781556	-0.002655	-0.010106	-0.011463	0.999883	
4336														-0.126843	-0.114341	9.775712	-0.781478	-0.623750	-0.015077	0.623850	-0.781540	-0.002621	-0.010148	-0.011454	0.999883	
4337														-0.138880	-0.097615	9.760408	-0.781477	-0.623752	-0.015072	0.623851	-0.781539	-0.002632	-0.010138	-0.011459	0.999883	
4338														-0.110070	-0.101319	9.761749	-0.781462	-0.623770	-0.015084	0.623870	-0.781524	-0.002597	-0.010168	-0.011440	0.999883	
4339														-0.110854	-0.100835	9.776385	-0.781462	-0.623771	-0.015064	0.623870	-0.781524	-0.002607	-0.010146	-0.011436	0.999883	
4340														-0.125267	-0.098549	9.775718	-0.781476	-0.623753	-0.015060	0.623853	-0.781537	-0.002619	-0.010136	-0.011442	0.999883	
4341														-0.126119	-0.098222	9.790351	-0.781487	-0.623740	-0.015087	0.623839	-0.781548	-0.002601	-0.010169	-0.011445	0.999883	
4342														-0.112553	-0.114653	9.761760	-0.781496	-0.623728	-0.015083	0.623827	-0.781558	-0.002597	-0.010169	-0.011439	0.999883	
4343														-0.111162	-0.099620	9.776394	-0.781508	-0.623713	-0.015049	0.623812	-0.781570	-0.002591	-0.010146	-0.011413	0.999883	
4344														-0.113811	-0.113708	9.791036	-0.781508	-0.623713	-0.015060	0.623812	-0.781570	-0.002603	-0.010147	-0.011429	0.999883	
4345														-0.139477	-0.095091	9.760424	-0.781497	-0.623728	-0.015040	0.623827	-0.781558	-0.002598	-0.010135	-0.011413	0.999884	
4346														-0.112674	-0.113183	9.761776	-0.781509	-0.623713	-0.015053	0.623812	-0.781571	-0.002564	-0.010166	-0.011394	0.999883	
4347														-0.124600	-0.081674	9.790358	-0.781508	-0.623714	-0.015048	0.623813	-0.781569	-0.002590	-0.010146	-0.011411	0.999883	
4348														-0.128041	-0.110567	9.775740	-0.781508	-0.623713	-0.015060	0.623812	-0.781570	-0.002572	-0.010166	-0.011404	0.999883	
4349														-0.112443	-0.112381	9.747148	-0.781506	-0.623716	-0.015057	0.623815	-0.781568	-0.002552	-0.010176	-0.011387	0.999883	
4350														-0.113951	-0.111843	9.776416	-0.781517	-0.623702	-0.015068	0.623801	-0.781579	-0.002549	-0.010187	-0.011392	0.999883	
4351														-0.125898	-0.095144	9.761103	-0.781489	-0.623738	-0.015063	0.623836	-0.781551	-0.002544	-0.010186	-0.011386	0.999883	
4352														-0.128649	-0.109326	9.775746	-0.781488	-0.623738	-0.015074	0.623837	-0.781550	-0.002556	-0.010187	-0.011401	0.999883	
4353														-0.140488	-0.092534	9.760434	-0.781486	-0.623742	-0.015040	0.623840	-0.781548	-0.002535	-0.010173	-0.011364	0.999884	
4354														-0.111663	-0.095993	9.761785	-0.781496	-0.623728	-0.015053	0.623826	-0.781559	-0.002502	-0.010204	-0.011345	0.999884	
4355														-0.128488	-0.107996	9.761122	-0.781494	-0.623731	-0.015050	0.623829	-0.781557	-0.002467	-0.010224	-0.011316	0.999884	
4356														-0.125329	-0.093355	9.731847	-0.781491	-0.623735	-0.015061	0.623833	-0.781554	-0.002478	-0.010225	-0.011332	0.999884	
4357														-0.113631	-0.094659	9.791054	-0.781501	-0.623723	-0.015058	0.623821	-0.781564	-0.002459	-0.010235	-0.011315	0.999884	
4358														-0.115089	-0.108887	9.776436	-0.781499	-0.623725	-0.015054	0.623823	-0.781562	-0.002455	-0.010234	-0.011309	0.999884	
4359														-0.111114	-0.079590	9.776413	-0.781509	-0.623712	-0.015050	0.623810	-0.781572	-0.002466	-0.010224	-0.011316	0.999884	
4360														-0.128956	-0.106341	9.761134	-0.781484	-0.623745	-0.015030	0.623842	-0.781547	-0.002446	-0.010221	-0.011288	0.999884	
4361														-0.113258	-0.093437	9.776431	-0.781507	-0.623715	-0.015057	0.623812	-0.781570	-0.002459	-0.010234	-0.011314	0.999884	
4362														-0.114002	-0.093001	9.791066	-0.781507	-0.623716	-0.015023	0.623813	-0.781570	-0.002438	-0.010221	-0.011277	0.999884	
4363														-0.129125	-0.105408	9.761142	-0.781493	-0.623733	-0.015033	0.623830	-0.781556	-0.002465	-0.010212	-0.011304	0.999884	
4364														-0.114159	-0.092544	9.791068	-0.781486	-0.623735	-0.015327	0.623838	-0.781550	-0.002616	-0.010347	-0.011606	0.999879	
4365														-0.132158	-0.119451	9.775789	-0.781479	-0.623743	-0.015322	0.623845	-0.781543	-0.002627	-0.010337	-0.011612	0.999879	
4366														-0.130238	-0.104608	9.775777	-0.781478	-0.623744	-0.015320	0.623847	-0.781542	-0.002607	-0.010347	-0.011594	0.999879	
4367														-0.130463	-0.104214	9.775778	-0.781467	-0.623758	-0.015332	0.623860	-0.781531	-0.002588	-0.010368	-0.011587	0.999879	
4368														-0.130528	-0.103778	9.775782	-0.781480	-0.623742	-0.015298	0.623844	-0.781545	-0.002583	-0.010345	-0.011562	0.999880	
4369														-0.127888	-0.088995	9.761135	-0.781464	-0.623763	-0.015310	0.623865	-0.781528	-0.002579	-0.010356	-0.011566	0.999879	
4370														-0.099753	-0.092724	9.777122	-0.781461	-0.623766	-0.015336	0.623868	-0.781525	-0.002591	-0.010369	-0.011592	0.999879	
4371														-0.130307	-0.103197	9.761150	-0.781458	-0.623769	-0.015348	0.623871	-0.781523	-0.002571	-0.010391	-0.011585	0.999879	
4372														-0.129840	-0.088126	9.790398	-0.781454	-0.623775	-0.015345	0.623877	-0.781519	-0.002567	-0.010391	-0.011579	0.999879	
4373														-0.131337	-0.102516	9.775784	-0.781440	-0.623791	-0.015371	0.623893	-0.781505	-0.002564	-0.010414	-0.011593	0.999879	
4374														-0.131472	-0.102339	9.775784	-0.781439	-0.623792	-0.015367	0.623895	-0.781504	-0.002574	-0.010404	-0.011599	0.999879	
4375														-0.127688	-0.102722	9.772297	-0.781430	-0.623803	-0.015370	0.623906	-0.781495	-0.002588	-0.010398	-0.011612	0.999879	
4376														-0.123904	-0.103104	9.768810	-0.781421	-0.623814	-0.015374	0.623917	-0.781486	-0.002601	-0.010392	-0.011625	0.999878	
4377														-0.132921	-0.116403	9.761175	-0.781455	-0.623772	-0.015387	0.623875	-0.781520	-0.002593	-0.010408	-0.011626	0.999878	
4378														-0.131690	-0.101449	9.775791	-0.781444	-0.623787	-0.015368	0.623889	-0.781508	-0.002588	-0.010396	-0.011610	0.999879	
4379														-0.131761	-0.101117	9.775793	-0.781441	-0.623789	-0.015380	0.623892	-0.781506	-0.002584	-0.010407	-0.011615	0.999878	
4380														-0.101646	-0.090202	9.791765	-0.781449	-0.623779	-0.015392	0.623882	-0.781515	-0.002580	-0.010419	-0.011619	0.999878	
4381														-0.116851	-0.102640	9.761843	-0.781450	-0.623778	-0.015373	0.623881	-0.781515	-0.002576	-0.010408	-0.011604	0.999879	
4382														-0.119455	-0.116612	9.776503	-0.781451	-0.623778	-0.015354	0.623881	-0.781516	-0.002571	-0.010396	-0.011588	0.999879	
4383														-0.117611	-0.101815	9.776482	-0.781451	-0.623777	-0.015382	0.623880	-0.781516	-0.002568	-0.010419	-0.011603	0.999878	
4384														-0.115825	-0.087065	9.776459	-0.781436	-0.623796	-0.015378	0.623898	-0.781501	-0.002563	-0.010419	-0.011597	0.999878	
4385														-0.132421	-0.099331	9.775802	-0.781422	-0.623813	-0.015390	0.623916	-0.781487	-0.002559	-0.010430	-0.011602	0.999878	
4386														-0.117316	-0.100976	9.761855	-0.781447	-0.623783	-0.015357	0.623885	-0.781512	-0.002539	-0.010418	-0.011565	0.999879	
4387														-0.118775	-0.100251	9.791124	-0.781420	-0.623817	-0.015369	0.623919	-0.781485	-0.002520	-0.010439	-0.011558	0.999879	
4388														-0.117549	-0.100094	9.761861	-0.781419	-0.623818	-0.015350	0.623920	-0.781484	-0.002515	-0.010427	-0.011542	0.999879	
4389														-0.118246	-0.099702	9.776496	-0.781417	-0.623820	-0.015362	0.623922	-0.781482	-0.002526	-0.010429	-0.011559	0.999879	
4390														-0.132204	-0.097579	9.761183	-0.781427	-0.623808	-0.015359	0.623909	-0.781493	-0.002507	-0.010439	-0.011542	0.999879	
4391														-0.102036	-0.086475	9.777156	-0.781413	-0.623825	-0.015355	0.623926	-0.781479	-0.002502	-0.010439	-0.011536	0.999879	
4392														-0.121813	-0.127749	9.761926	-0.781437	-0.623795	-0.015338	0.623897	-0.781503	-0.002483	-0.010438	-0.011509	0.999879	
4393														-0.118013	-0.098328	9.761873	-0.781398	-0.623844	-0.015349	0.623945	-0.781464	-0.002478	-0.010448	-0.011514	0.999879	
4394														-0.120722	-0.112499	9.776536	-0.781422	-0.623814	-0.015345	0.623916	-0.781488	-0.002490	-0.010439	-0.011520	0.999879	
4395														-0.131995	-0.095938	9.746561	-0.781421	-0.623815	-0.015343	0.623916	-0.781487	-0.002471	-0.010449	-0.011503	0.999879	
4396														-0.118290	-0.097386	9.761880	-0.781433	-0.623800	-0.015340	0.623902	-0.781499	-0.002467	-0.010449	-0.011498	0.999879	
4397														-0.118468	-0.097048	9.761881	-0.781419	-0.623818	-0.015352	0.623919	-0.781485	-0.002448	-0.010471	-0.011491	0.999879	
4398														-0.119369	-0.096533	9.776514	-0.781429	-0.623806	-0.015350	0.623907	-0.781495	-0.002429	-0.010481	-0.011475	0.999879	
4399														-0.119607	-0.096245	9.776514	-0.781440	-0.623791	-0.015378	0.623892	-0.781507	-0.002426	-0.010504	-0.011490	0.999879	
4400														-0.136142	-0.108590	9.775861	-0.781439	-0.623793	-0.015358	0.623894	-0.781505	-0.002436	-0.010483	-0.011486	0.999879	
4401														-0.119593	-0.095542	9.776521	-0.781437	-0.623796	-0.015325	0.623896	-0.781504	-0.002415	-0.010470	-0.011449	0.999880	
4402														-0.118991	-0.095333	9.761891	-0.781437	-0.623795	-0.015351	0.623896	-0.781503	-0.002428	-0.010483	-0.011475	0.999879	
4403														-0.105189	-0.096881	9.777211	-0.781450	-0.623780	-0.015318	0.623880	-0.781516	-0.002423	-0.010460	-0.011450	0.999880	
4404														-0.122874	-0.123668	9.761965	-0.781445	-0.623786	-0.015314	0.623886	-0.781512	-0.002418	-0.010460	-0.011444	0.999880	
4405														-0.119054	-0.094302	9.761901	-0.781454	-0.623775	-0.015311	0.623875	-0.781521	-0.002414	-0.010460	-0.011439	0.999880	
4406														-0.106677	-0.110426	9.762622	-0.781465	-0.623761	-0.015324	0.623861	-0.781531	-0.002396	-0.010482	-0.011433	0.999880	
4407														-0.118253	-0.078980	9.776499	-0.781489	-0.623730	-0.015338	0.623830	-0.781556	-0.002378	-0.010504	-0.011427	0.999880	
4408														-0.121161	-0.093029	9.791166	-0.781484	-0.623736	-0.015350	0.623836	-0.781552	-0.002359	-0.010525	-0.011419	0.999879	
4409														-0.136380	-0.105578	9.761251	-0.781458	-0.623769	-0.015345	0.623869	-0.781525	-0.002370	-0.010514	-0.011425	0.999879	
4410														-0.110051	-0.123407	9.777298	-0.781445	-0.623786	-0.015328	0.623885	-0.781513	-0.002335	-0.010522	-0.011387	0.999880	
4411														-0.134613	-0.090129	9.761221	-0.781432	-0.623802	-0.015324	0.623902	-0.781500	-0.002330	-0.010522	-0.011382	0.999880	
4412														-0.107671	-0.108235	9.762636	-0.781430	-0.623805	-0.015336	0.623905	-0.781497	-0.002327	-0.010533	-0.011386	0.999880	
4413														-0.106638	-0.093191	9.777232	-0.781428	-0.623807	-0.015334	0.623906	-0.781496	-0.002292	-0.010553	-0.011358	0.999880	
4414														-0.137649	-0.103410	9.775896	-0.781424	-0.623812	-0.015315	0.623911	-0.781492	-0.002303	-0.010532	-0.011354	0.999880	
4415														-0.121797	-0.090318	9.791183	-0.781409	-0.623832	-0.015296	0.623931	-0.781476	-0.002297	-0.010520	-0.011339	0.999880	
4416														-0.124326	-0.119238	9.762002	-0.781420	-0.623818	-0.015293	0.623917	-0.781487	-0.002293	-0.010521	-0.011334	0.999880	
4417														-0.121157	-0.089689	9.776558	-0.781432	-0.623804	-0.015275	0.623902	-0.781499	-0.002289	-0.010509	-0.011318	0.999881	
4418														-0.124422	-0.118534	9.762009	-0.781466	-0.623761	-0.015288	0.623859	-0.781533	-0.002286	-0.010522	-0.011324	0.999881	
4419														-0.123259	-0.103765	9.776600	-0.781464	-0.623763	-0.015298	0.623862	-0.781531	-0.002313	-0.010513	-0.011352	0.999880	
4420														-0.122667	-0.103776	9.761969	-0.781462	-0.623765	-0.015310	0.623864	-0.781530	-0.002310	-0.010525	-0.011356	0.999880	
4421														-0.107718	-0.090634	9.791882	-0.781461	-0.623766	-0.015307	0.623865	-0.781529	-0.002306	-0.010524	-0.011351	0.999880	
4422														-0.108363	-0.105087	9.762662	-0.781459	-0.623769	-0.015303	0.623868	-0.781526	-0.002302	-0.010524	-0.011346	0.999880	
4423														-0.124192	-0.102574	9.791241	-0.781455	-0.623774	-0.015284	0.623873	-0.781523	-0.002312	-0.010503	-0.011342	0.999881	
4424														-0.123488	-0.102488	9.776611	-0.781453	-0.623776	-0.015295	0.623875	-0.781520	-0.002324	-0.010504	-0.011359	0.999880	
4425														-0.122251	-0.102367	9.747349	-0.781441	-0.623792	-0.015278	0.623890	-0.781509	-0.002289	-0.010512	-0.011321	0.999881	
4426														-0.109161	-0.103476	9.777309	-0.781453	-0.623778	-0.015260	0.623876	-0.781520	-0.002285	-0.010501	-0.011306	0.999881	
4427														-0.121769	-0.086761	9.776576	-0.781437	-0.623797	-0.015271	0.623896	-0.781504	-0.002296	-0.010502	-0.011322	0.999881	
4428														-0.138338	-0.099295	9.775929	-0.781436	-0.623798	-0.015297	0.623897	-0.781503	-0.002309	-0.010514	-0.011348	0.999880	
4429														-0.122616	-0.101409	9.747355	-0.781431	-0.623804	-0.015308	0.623903	-0.781498	-0.002320	-0.010516	-0.011364	0.999880	
4430														-0.124110	-0.100963	9.776619	-0.781427	-0.623808	-0.015320	0.623908	-0.781495	-0.002317	-0.010528	-0.011369	0.999880	
4431														-0.121644	-0.086295	9.761943	-0.781439	-0.623793	-0.015318	0.623892	-0.781507	-0.002313	-0.010528	-0.011365	0.999880	
4432														-0.123846	-0.100475	9.761988	-0.781449	-0.623781	-0.015347	0.623880	-0.781517	-0.002281	-0.010571	-0.011357	0.999880	
4433														-0.125327	-0.099814	9.791255	-0.781419	-0.623819	-0.015312	0.623918	-0.781487	-0.002290	-0.010538	-0.011342	0.999880	
4434														-0.123924	-0.099656	9.761996	-0.781418	-0.623820	-0.015309	0.623919	-0.781486	-0.002271	-0.010547	-0.011326	0.999880	
4435														-0.124147	-0.099160	9.761998	-0.781442	-0.623790	-0.015308	0.623889	-0.781510	-0.002237	-0.010568	-0.011299	0.999880	
4436														-0.124897	-0.098588	9.776633	-0.781439	-0.623794	-0.015289	0.623892	-0.781507	-0.002248	-0.010546	-0.011295	0.999881	
4437														-0.124873	-0.098370	9.776636	-0.781451	-0.623780	-0.015300	0.623878	-0.781518	-0.002261	-0.010547	-0.011312	0.999880	
4438														-0.139462	-0.096241	9.775944	-0.781447	-0.623784	-0.015297	0.623883	-0.781515	-0.002257	-0.010547	-0.011307	0.999880	
4439														-0.108715	-0.085186	9.777282	-0.781431	-0.623804	-0.015309	0.623902	-0.781499	-0.002238	-0.010568	-0.011300	0.999880	
4440														-0.139921	-0.095558	9.775944	-0.781427	-0.623808	-0.015321	0.623907	-0.781496	-0.002219	-0.010589	-0.011293	0.999880	
4441														-0.112253	-0.113640	9.762753	-0.781440	-0.623793	-0.015304	0.623891	-0.781508	-0.002215	-0.010578	-0.011279	0.999880	
4442														-0.112221	-0.113316	9.762757	-0.781442	-0.623790	-0.015300	0.623888	-0.781511	-0.002227	-0.010568	-0.011285	0.999880	
4443														-0.111134	-0.098474	9.777338	-0.781441	-0.623791	-0.015327	0.623890	-0.781509	-0.002224	-0.010591	-0.011301	0.999880	
4444														-0.127049	-0.111009	9.762064	-0.781455	-0.623773	-0.015324	0.623872	-0.781524	-0.002221	-0.010590	-0.011296	0.999880	
4445														-0.125959	-0.096063	9.776645	-0.781451	-0.623778	-0.015336	0.623876	-0.781520	-0.002218	-0.010602	-0.011301	0.999880	
4446														-0.109003	-0.083398	9.762656	-0.781437	-0.623795	-0.015347	0.623893	-0.781506	-0.002230	-0.010603	-0.011317	0.999880	
4447														-0.111714	-0.097497	9.777341	-0.781448	-0.623781	-0.015345	0.623880	-0.781517	-0.002211	-0.010613	-0.011301	0.999880	
4448														-0.142175	-0.107985	9.761372	-0.781445	-0.623785	-0.015358	0.623883	-0.781515	-0.002193	-0.010635	-0.011295	0.999880	
4449														-0.114076	-0.111340	9.777397	-0.781456	-0.623771	-0.015370	0.623869	-0.781526	-0.002190	-0.010646	-0.011300	0.999879	
4450														-0.128652	-0.109013	9.776704	-0.781458	-0.623770	-0.015337	0.623868	-0.781527	-0.002170	-0.010633	-0.011264	0.999880	
4451														-0.110427	-0.081522	9.777294	-0.781467	-0.623758	-0.015364	0.623856	-0.781536	-0.002183	-0.010646	-0.011291	0.999880	
4452														-0.112459	-0.095871	9.777349	-0.781465	-0.623760	-0.015361	0.623858	-0.781535	-0.002179	-0.010646	-0.011286	0.999880	
4453														-0.112530	-0.095538	9.777351	-0.781451	-0.623777	-0.015357	0.623876	-0.781521	-0.002175	-0.010645	-0.011281	0.999880	
4454														-0.126434	-0.093569	9.762024	-0.781446	-0.623783	-0.015368	0.623882	-0.781516	-0.002187	-0.010646	-0.011297	0.999880	
4455														-0.125773	-0.093440	9.747394	-0.781432	-0.623801	-0.015349	0.623899	-0.781502	-0.002183	-0.010634	-0.011282	0.999880	
4456														-0.127151	-0.092661	9.776662	-0.781436	-0.623797	-0.015332	0.623894	-0.781506	-0.002163	-0.010632	-0.011256	0.999880	
4457														-0.140416	-0.090687	9.746703	-0.781444	-0.623786	-0.015344	0.623884	-0.781514	-0.002160	-0.010644	-0.011261	0.999880	
4458														-0.114053	-0.108710	9.762789	-0.781430	-0.623804	-0.015354	0.623903	-0.781499	-0.002188	-0.010635	-0.011289	0.999880	
4459														-0.127999	-0.106591	9.747461	-0.781439	-0.623793	-0.015338	0.623890	-0.781509	-0.002137	-0.010654	-0.011240	0.999880	
4460														-0.098579	-0.095034	9.778067	-0.781429	-0.623806	-0.015334	0.623904	-0.781498	-0.002149	-0.010643	-0.011246	0.999880	
4461														-0.129514	-0.105633	9.776730	-0.781439	-0.623793	-0.015345	0.623891	-0.781509	-0.002161	-0.010644	-0.011263	0.999880	
4462														-0.111782	-0.093113	9.748107	-0.781436	-0.623797	-0.015341	0.623895	-0.781505	-0.002173	-0.010633	-0.011269	0.999880	
4463														-0.128990	-0.105334	9.762101	-0.781449	-0.623781	-0.015354	0.623879	-0.781518	-0.002155	-0.010655	-0.011263	0.999880	
4464														-0.116036	-0.106678	9.792064	-0.781444	-0.623786	-0.015365	0.623884	-0.781514	-0.002167	-0.010656	-0.011280	0.999880	
4465														-0.114689	-0.106703	9.762803	-0.781457	-0.623770	-0.015347	0.623868	-0.781527	-0.002163	-0.010645	-0.011265	0.999880	
4466														-0.112081	-0.091793	9.748116	-0.781453	-0.623776	-0.015314	0.623873	-0.781523	-0.002143	-0.010632	-0.011229	0.999880	
4467														-0.115291	-0.105588	9.777446	-0.781451	-0.623779	-0.015310	0.623876	-0.781520	-0.002155	-0.010621	-0.011235	0.999880	
4468														-0.112698	-0.090888	9.762756	-0.781463	-0.623764	-0.015293	0.623861	-0.781532	-0.002150	-0.010610	-0.011221	0.999881	
4469														-0.129740	-0.103071	9.776754	-0.781464	-0.623763	-0.015289	0.623860	-0.781533	-0.002162	-0.010600	-0.011228	0.999881	
4470														-0.112354	-0.075499	9.791958	-0.781480	-0.623742	-0.015318	0.623840	-0.781549	-0.002145	-0.010633	-0.011233	0.999880	
4471														-0.117625	-0.118940	9.777518	-0.781465	-0.623760	-0.015330	0.623858	-0.781535	-0.002127	-0.010654	-0.011226	0.999880	
4472														-0.113373	-0.089699	9.762759	-0.781477	-0.623745	-0.015328	0.623842	-0.781547	-0.002124	-0.010654	-0.011222	0.999880	
4473														-0.115260	-0.103846	9.762827	-0.781462	-0.623765	-0.015309	0.623862	-0.781532	-0.002119	-0.010642	-0.011207	0.999881	
4474														-0.114250	-0.088720	9.777396	-0.781474	-0.623749	-0.015322	0.623846	-0.781544	-0.002086	-0.010674	-0.011189	0.999880	
4475														-0.116193	-0.102918	9.777464	-0.781473	-0.623752	-0.015302	0.623849	-0.781542	-0.002112	-0.010642	-0.011197	0.999881	
4476														-0.116117	-0.102754	9.777467	-0.781471	-0.623754	-0.015314	0.623851	-0.781540	-0.002124	-0.010643	-0.011214	0.999880	
4477														-0.129533	-0.085984	9.791331	-0.781480	-0.623742	-0.015311	0.623839	-0.781550	-0.002122	-0.010643	-0.011209	0.999881	
4478														-0.101184	-0.104311	9.763539	-0.781474	-0.623749	-0.015338	0.623846	-0.781544	-0.002119	-0.010665	-0.011224	0.999880	
4479														-0.132203	-0.114843	9.762204	-0.781485	-0.623735	-0.015319	0.623832	-0.781555	-0.002115	-0.010653	-0.011210	0.999880	
4480														-0.117425	-0.101359	9.792104	-0.781485	-0.623736	-0.015334	0.623833	-0.781555	-0.002067	-0.010695	-0.011181	0.999880	
