// Start Time: Unknown: 
// Update Rate: 60.0Hz 
// Filter Profile: human (46.1) 
// Firmware Version: 4.6.0
PacketCounter	SampleTimeFine	Year	Month	Day	Second	UTC_Nano	UTC_Year	UTC_Month	UTC_Day	UTC_Hour	UTC_Minute	UTC_Second	UTC_Valid	Acc_X	Acc_Y	Acc_Z	Mat[1][1]	Mat[2][1]	Mat[3][1]	Mat[1][2]	Mat[2][2]	Mat[3][2]	Mat[1][3]	Mat[2][3]	Mat[3][3] 
3598														-0.081273	0.082635	9.817813	-0.990830	0.134670	-0.010982	-0.134741	-0.990863	0.006021	-0.010071	0.007446	0.999922	
3599														-0.094581	0.052520	9.788647	-0.990833	0.134647	-0.010992	-0.134718	-0.990866	0.006010	-0.010082	0.007436	0.999922	
3600														-0.095719	0.081557	9.803431	-0.990834	0.134637	-0.010985	-0.134708	-0.990867	0.006002	-0.010076	0.007427	0.999922	
3601														-0.079918	0.067740	9.803109	-0.990832	0.134657	-0.010969	-0.134728	-0.990864	0.006026	-0.010057	0.007449	0.999922	
3602														-0.095057	0.081399	9.803439	-0.990832	0.134651	-0.010971	-0.134722	-0.990865	0.005985	-0.010065	0.007408	0.999922	
3603														-0.109535	0.080423	9.803701	-0.990833	0.134642	-0.010985	-0.134713	-0.990867	0.006005	-0.010076	0.007430	0.999922	
3604														-0.095034	0.081279	9.788797	-0.990837	0.134618	-0.010993	-0.134689	-0.990870	0.005994	-0.010086	0.007420	0.999922	
3605														-0.093812	0.066513	9.803377	-0.990835	0.134631	-0.011005	-0.134702	-0.990868	0.005998	-0.010097	0.007426	0.999921	
3606														-0.094413	0.081129	9.803447	-0.990836	0.134620	-0.011001	-0.134691	-0.990869	0.006005	-0.010092	0.007432	0.999921	
3607														-0.093704	0.080924	9.818099	-0.990834	0.134642	-0.010962	-0.134713	-0.990867	0.005987	-0.010056	0.007409	0.999922	
3608														-0.091958	0.051573	9.803321	-0.990839	0.134602	-0.010974	-0.134673	-0.990872	0.005992	-0.010067	0.007415	0.999922	
3609														-0.092561	0.066188	9.803391	-0.990837	0.134618	-0.010971	-0.134689	-0.990870	0.005998	-0.010064	0.007421	0.999922	
3610														-0.078200	0.081425	9.817848	-0.990840	0.134593	-0.010962	-0.134663	-0.990873	0.005974	-0.010058	0.007396	0.999922	
3611														-0.108242	0.094296	9.803799	-0.990841	0.134590	-0.010959	-0.134661	-0.990874	0.005981	-0.010054	0.007402	0.999922	
3612														-0.100298	0.087317	9.803636	-0.990838	0.134609	-0.010953	-0.134679	-0.990871	0.005972	-0.010049	0.007393	0.999922	
3613														-0.092353	0.080339	9.803473	-0.990836	0.134628	-0.010946	-0.134698	-0.990869	0.005964	-0.010044	0.007384	0.999922	
3614														-0.105708	0.064726	9.803673	-0.990840	0.134600	-0.010942	-0.134670	-0.990872	0.005971	-0.010038	0.007390	0.999922	
3615														-0.106170	0.079344	9.803747	-0.990839	0.134607	-0.010924	-0.134678	-0.990871	0.005980	-0.010019	0.007396	0.999922	
3616														-0.090349	0.065472	9.803417	-0.990835	0.134638	-0.010919	-0.134708	-0.990867	0.005972	-0.010015	0.007388	0.999923	
3617														-0.090957	0.079940	9.803490	-0.990834	0.134639	-0.010927	-0.134709	-0.990867	0.005960	-0.010025	0.007378	0.999923	
3618														-0.090739	0.079857	9.803492	-0.990832	0.134659	-0.010923	-0.134730	-0.990864	0.005966	-0.010020	0.007383	0.999923	
3619														-0.104995	0.079019	9.803762	-0.990830	0.134670	-0.010906	-0.134740	-0.990863	0.005975	-0.010001	0.007390	0.999923	
3620														-0.103794	0.064390	9.803696	-0.990831	0.134670	-0.010902	-0.134740	-0.990863	0.005983	-0.009996	0.007397	0.999923	
3621														-0.089514	0.079640	9.818148	-0.990829	0.134683	-0.010908	-0.134753	-0.990861	0.005957	-0.010006	0.007373	0.999923	
3622														-0.088533	0.064931	9.818080	-0.990831	0.134665	-0.010922	-0.134736	-0.990864	0.005977	-0.010018	0.007394	0.999922	
3623														-0.073770	0.065835	9.817813	-0.990828	0.134689	-0.010934	-0.134759	-0.990860	0.005981	-0.010029	0.007400	0.999922	
3624														-0.089204	0.079522	9.803509	-0.990827	0.134692	-0.010911	-0.134762	-0.990860	0.005961	-0.010008	0.007377	0.999923	
3625														-0.103951	0.093173	9.818499	-0.990829	0.134685	-0.010895	-0.134755	-0.990861	0.005985	-0.009989	0.007398	0.999923	
3626														-0.096318	0.089945	9.814687	-0.990829	0.134684	-0.010905	-0.134754	-0.990861	0.005982	-0.010000	0.007396	0.999923	
3627														-0.088685	0.086717	9.810876	-0.990829	0.134683	-0.010915	-0.134754	-0.990861	0.005978	-0.010010	0.007394	0.999923	
3628														-0.116511	0.063031	9.803988	-0.990829	0.134682	-0.010911	-0.134752	-0.990861	0.005986	-0.010005	0.007401	0.999923	
3629														-0.105647	0.067276	9.803805	-0.990826	0.134700	-0.010929	-0.134771	-0.990859	0.005980	-0.010023	0.007398	0.999922	
3630														-0.094784	0.071521	9.803623	-0.990823	0.134719	-0.010946	-0.134789	-0.990856	0.005975	-0.010041	0.007396	0.999922	
3631														-0.102375	0.078242	9.803796	-0.990823	0.134721	-0.010955	-0.134792	-0.990856	0.005965	-0.010051	0.007387	0.999922	
3632														-0.102655	0.092729	9.818517	-0.990824	0.134714	-0.010936	-0.134784	-0.990857	0.005975	-0.010031	0.007394	0.999922	
3633														-0.071200	0.065180	9.817837	-0.990830	0.134675	-0.010902	-0.134745	-0.990862	0.005987	-0.009997	0.007401	0.999923	
3634														-0.086480	0.075221	9.807180	-0.990829	0.134683	-0.010917	-0.134754	-0.990861	0.005968	-0.010014	0.007384	0.999923	
3635														-0.101761	0.085261	9.796524	-0.990827	0.134692	-0.010932	-0.134762	-0.990860	0.005949	-0.010031	0.007367	0.999923	
3636														-0.086429	0.078460	9.803543	-0.990825	0.134705	-0.010942	-0.134775	-0.990858	0.005938	-0.010042	0.007358	0.999923	
3637														-0.100903	0.077446	9.803817	-0.990824	0.134714	-0.010951	-0.134784	-0.990857	0.005927	-0.010052	0.007349	0.999922	
3638														-0.085785	0.078087	9.818194	-0.990825	0.134708	-0.010945	-0.134778	-0.990858	0.005919	-0.010048	0.007339	0.999923	
3639														-0.099457	0.062508	9.803753	-0.990825	0.134710	-0.010924	-0.134779	-0.990858	0.005912	-0.010028	0.007330	0.999923	
3640														-0.100522	0.091543	9.818550	-0.990821	0.134737	-0.010917	-0.134806	-0.990854	0.005904	-0.010022	0.007321	0.999923	
3641														-0.070987	0.093184	9.818006	-0.990821	0.134739	-0.010913	-0.134809	-0.990854	0.005911	-0.010017	0.007328	0.999923	
3642														-0.083876	0.063130	9.803490	-0.990819	0.134752	-0.010910	-0.134821	-0.990852	0.005918	-0.010013	0.007334	0.999923	
3643														-0.113000	0.075845	9.848051	-0.990821	0.134735	-0.010937	-0.134805	-0.990854	0.005919	-0.010040	0.007339	0.999923	
3644														-0.097854	0.062038	9.818414	-0.990819	0.134752	-0.010913	-0.134822	-0.990852	0.005898	-0.010019	0.007315	0.999923	
3645														-0.098830	0.076624	9.789203	-0.990821	0.134737	-0.010894	-0.134807	-0.990854	0.005907	-0.009999	0.007321	0.999923	
3646														-0.097037	0.061806	9.818424	-0.990822	0.134736	-0.010888	-0.134805	-0.990855	0.005899	-0.009994	0.007313	0.999923	
3647														-0.097739	0.076410	9.803858	-0.990822	0.134736	-0.010854	-0.134805	-0.990855	0.005911	-0.009958	0.007320	0.999924	
3648														-0.096661	0.076292	9.833154	-0.990827	0.134698	-0.010836	-0.134767	-0.990860	0.005921	-0.009939	0.007327	0.999924	
3649														-0.097346	0.076446	9.774576	-0.990824	0.134724	-0.010814	-0.134793	-0.990856	0.005915	-0.009918	0.007319	0.999924	
3650														-0.080845	0.062431	9.803519	-0.990822	0.134738	-0.010794	-0.134807	-0.990854	0.005910	-0.009899	0.007311	0.999924	
3651														-0.094739	0.061501	9.818448	-0.990822	0.134745	-0.010779	-0.134814	-0.990853	0.005934	-0.009881	0.007332	0.999924	
3652														-0.095471	0.090627	9.847893	-0.990821	0.134750	-0.010759	-0.134819	-0.990853	0.005928	-0.009862	0.007324	0.999925	
3653														-0.109417	0.075092	9.818813	-0.990821	0.134749	-0.010754	-0.134818	-0.990853	0.005919	-0.009858	0.007315	0.999925	
3654														-0.094861	0.075866	9.803890	-0.990821	0.134755	-0.010762	-0.134823	-0.990852	0.005909	-0.009868	0.007305	0.999925	
3655														-0.080456	0.076716	9.788965	-0.990816	0.134788	-0.010789	-0.134857	-0.990847	0.005911	-0.009893	0.007312	0.999924	
3656														-0.080329	0.091083	9.832979	-0.990811	0.134825	-0.010783	-0.134893	-0.990843	0.005902	-0.009888	0.007303	0.999924	
3657														-0.108515	0.060241	9.774814	-0.990814	0.134803	-0.010750	-0.134871	-0.990845	0.005914	-0.009854	0.007309	0.999925	
3658														-0.077171	0.047119	9.818113	-0.990815	0.134795	-0.010760	-0.134864	-0.990847	0.005903	-0.009866	0.007300	0.999925	
3659														-0.093709	0.089900	9.847917	-0.990814	0.134805	-0.010772	-0.134874	-0.990845	0.005907	-0.009877	0.007306	0.999925	
3660														-0.094567	0.090129	9.789338	-0.990815	0.134796	-0.010753	-0.134864	-0.990846	0.005916	-0.009857	0.007312	0.999925	
3661														-0.108013	0.074541	9.789549	-0.990815	0.134799	-0.010761	-0.134867	-0.990846	0.005905	-0.009867	0.007302	0.999925	
3662														-0.077535	0.061540	9.803552	-0.990813	0.134807	-0.010788	-0.134876	-0.990845	0.005907	-0.009893	0.007307	0.999924	
3663														-0.093339	0.089759	9.818637	-0.990814	0.134803	-0.010753	-0.134871	-0.990846	0.005904	-0.009858	0.007300	0.999925	
3664														-0.091123	0.060364	9.818490	-0.990817	0.134783	-0.010746	-0.134851	-0.990848	0.005896	-0.009853	0.007291	0.999925	
3665														-0.076572	0.061152	9.803562	-0.990821	0.134753	-0.010756	-0.134822	-0.990852	0.005886	-0.009864	0.007282	0.999925	
3666														-0.090898	0.060258	9.803850	-0.990820	0.134761	-0.010739	-0.134829	-0.990851	0.005911	-0.009845	0.007305	0.999925	
3667														-0.092097	0.089508	9.818651	-0.990824	0.134727	-0.010751	-0.134796	-0.990856	0.005915	-0.009856	0.007310	0.999925	
3668														-0.104792	0.059284	9.818786	-0.990826	0.134717	-0.010761	-0.134785	-0.990857	0.005905	-0.009867	0.007301	0.999925	
3669														-0.076066	0.061102	9.788923	-0.990823	0.134731	-0.010788	-0.134800	-0.990855	0.005906	-0.009893	0.007306	0.999924	
3670														-0.106360	0.088277	9.818945	-0.990822	0.134745	-0.010780	-0.134814	-0.990854	0.005883	-0.009889	0.007282	0.999925	
3671														-0.091519	0.088938	9.818662	-0.990823	0.134734	-0.010788	-0.134802	-0.990855	0.005872	-0.009899	0.007272	0.999925	
3672														-0.089508	0.059537	9.818510	-0.990826	0.134716	-0.010781	-0.134784	-0.990858	0.005864	-0.009893	0.007263	0.999925	
3673														-0.090688	0.074050	9.789301	-0.990820	0.134760	-0.010772	-0.134828	-0.990852	0.005841	-0.009886	0.007239	0.999925	
3674														-0.090190	0.088200	9.847965	-0.990816	0.134784	-0.010781	-0.134852	-0.990849	0.005830	-0.009896	0.007230	0.999925	
3675														-0.105536	0.087250	9.804321	-0.990815	0.134790	-0.010788	-0.134857	-0.990848	0.005804	-0.009907	0.007206	0.999925	
3676														-0.104491	0.072469	9.804245	-0.990815	0.134791	-0.010799	-0.134858	-0.990848	0.005809	-0.009917	0.007212	0.999925	
3677														-0.088699	0.073106	9.847895	-0.990817	0.134782	-0.010778	-0.134850	-0.990849	0.005804	-0.009897	0.007204	0.999925	
3678														-0.089504	0.073273	9.789318	-0.990819	0.134764	-0.010774	-0.134831	-0.990852	0.005811	-0.009892	0.007210	0.999925	
3679														-0.104144	0.086783	9.818982	-0.990822	0.134744	-0.010767	-0.134812	-0.990854	0.005803	-0.009887	0.007201	0.999925	
3680														-0.074080	0.073954	9.803679	-0.990816	0.134784	-0.010779	-0.134852	-0.990849	0.005807	-0.009897	0.007208	0.999925	
3681														-0.117787	0.071151	9.804552	-0.990819	0.134767	-0.010788	-0.134835	-0.990851	0.005797	-0.009908	0.007198	0.999925	
3682														-0.087821	0.072829	9.833263	-0.990820	0.134755	-0.010801	-0.134823	-0.990853	0.005816	-0.009918	0.007219	0.999925	
3683														-0.087900	0.072880	9.818620	-0.990822	0.134741	-0.010795	-0.134809	-0.990855	0.005808	-0.009914	0.007210	0.999925	
3684														-0.102519	0.071950	9.804269	-0.990822	0.134739	-0.010792	-0.134807	-0.990855	0.005815	-0.009910	0.007217	0.999925	
3685														-0.073976	0.088311	9.803769	-0.990822	0.134742	-0.010802	-0.134810	-0.990855	0.005805	-0.009921	0.007208	0.999925	
3686														-0.087169	0.072710	9.818628	-0.990819	0.134764	-0.010801	-0.134832	-0.990851	0.005826	-0.009917	0.007229	0.999925	
3687														-0.087174	0.072765	9.803985	-0.990821	0.134748	-0.010794	-0.134816	-0.990854	0.005818	-0.009911	0.007220	0.999925	
3688														-0.102559	0.086308	9.804361	-0.990826	0.134712	-0.010817	-0.134780	-0.990859	0.005806	-0.009936	0.007210	0.999925	
3689														-0.072416	0.073432	9.803695	-0.990818	0.134763	-0.010843	-0.134831	-0.990852	0.005807	-0.009961	0.007216	0.999924	
3690														-0.100986	0.071610	9.818929	-0.990822	0.134742	-0.010798	-0.134810	-0.990854	0.005837	-0.009912	0.007239	0.999925	
3691														-0.097148	0.071758	9.818858	-0.990821	0.134745	-0.010820	-0.134813	-0.990854	0.005816	-0.009938	0.007221	0.999925	
3692														-0.093311	0.071906	9.818787	-0.990821	0.134748	-0.010843	-0.134816	-0.990854	0.005794	-0.009963	0.007203	0.999924	
3693														-0.102362	0.085930	9.775083	-0.990820	0.134749	-0.010853	-0.134817	-0.990854	0.005783	-0.009974	0.007193	0.999924	
3694														-0.086932	0.086641	9.804082	-0.990823	0.134727	-0.010849	-0.134795	-0.990857	0.005791	-0.009970	0.007200	0.999924	
3695														-0.100660	0.085584	9.833670	-0.990824	0.134726	-0.010847	-0.134794	-0.990857	0.005797	-0.009967	0.007206	0.999924	
3696														-0.100594	0.085642	9.819029	-0.990824	0.134726	-0.010828	-0.134794	-0.990857	0.005807	-0.009946	0.007213	0.999925	
3697														-0.098751	0.056387	9.804224	-0.990821	0.134743	-0.010836	-0.134810	-0.990854	0.005796	-0.009956	0.007204	0.999924	
3698														-0.084766	0.071931	9.804012	-0.990821	0.134749	-0.010820	-0.134817	-0.990853	0.005822	-0.009937	0.007227	0.999925	
3699														-0.099015	0.071000	9.804312	-0.990822	0.134740	-0.010814	-0.134808	-0.990855	0.005813	-0.009931	0.007218	0.999925	
3700														-0.083652	0.071716	9.833308	-0.990825	0.134716	-0.010841	-0.134784	-0.990858	0.005816	-0.009959	0.007223	0.999924	
3701														-0.084186	0.071753	9.804019	-0.990824	0.134724	-0.010850	-0.134792	-0.990857	0.005805	-0.009969	0.007214	0.999924	
3702														-0.099437	0.085364	9.804401	-0.990818	0.134765	-0.010832	-0.134833	-0.990851	0.005814	-0.009950	0.007221	0.999924	
3703														-0.083597	0.071675	9.804024	-0.990818	0.134767	-0.010844	-0.134835	-0.990851	0.005819	-0.009961	0.007227	0.999924	
3704														-0.083156	0.071675	9.804028	-0.990820	0.134759	-0.010795	-0.134827	-0.990852	0.005834	-0.009910	0.007236	0.999925	
3705														-0.098570	0.085495	9.789767	-0.990819	0.134759	-0.010809	-0.134827	-0.990852	0.005853	-0.009922	0.007256	0.999924	
3706														-0.082500	0.071663	9.804034	-0.990822	0.134741	-0.010800	-0.134809	-0.990854	0.005829	-0.009916	0.007231	0.999925	
3707														-0.082281	0.071580	9.804036	-0.990819	0.134761	-0.010813	-0.134829	-0.990852	0.005848	-0.009926	0.007252	0.999924	
3708														-0.096681	0.070710	9.804338	-0.990819	0.134759	-0.010810	-0.134827	-0.990852	0.005855	-0.009922	0.007259	0.999924	
3709														-0.081771	0.071570	9.804040	-0.990819	0.134759	-0.010803	-0.134828	-0.990852	0.005847	-0.009917	0.007250	0.999925	
3710														-0.095709	0.070492	9.818990	-0.990816	0.134789	-0.010785	-0.134857	-0.990848	0.005857	-0.009896	0.007258	0.999925	
3711														-0.096102	0.070536	9.789703	-0.990817	0.134779	-0.010809	-0.134847	-0.990849	0.005843	-0.009923	0.007247	0.999925	
3712														-0.110514	0.083788	9.834027	-0.990813	0.134810	-0.010786	-0.134878	-0.990845	0.005823	-0.009902	0.007224	0.999925	
3713														-0.094738	0.069879	9.819004	-0.990814	0.134805	-0.010747	-0.134872	-0.990846	0.005804	-0.009866	0.007200	0.999925	
3714														-0.095925	0.084393	9.789803	-0.990816	0.134788	-0.010757	-0.134855	-0.990848	0.005793	-0.009878	0.007191	0.999925	
3715														-0.093455	0.069513	9.848302	-0.990814	0.134803	-0.010741	-0.134870	-0.990846	0.005818	-0.009858	0.007213	0.999925	
3716														-0.078781	0.070523	9.833357	-0.990816	0.134793	-0.010734	-0.134861	-0.990848	0.005811	-0.009853	0.007205	0.999926	
3717														-0.109282	0.083290	9.804763	-0.990820	0.134764	-0.010731	-0.134832	-0.990851	0.005817	-0.009849	0.007211	0.999925	
3718														-0.093499	0.069462	9.804377	-0.990816	0.134792	-0.010737	-0.134860	-0.990848	0.005791	-0.009859	0.007186	0.999926	
3719														-0.093680	0.083792	9.833755	-0.990817	0.134778	-0.010748	-0.134846	-0.990850	0.005797	-0.009869	0.007193	0.999925	
3720														-0.094471	0.083973	9.789821	-0.990820	0.134756	-0.010760	-0.134823	-0.990853	0.005800	-0.009880	0.007198	0.999925	
3721														-0.093939	0.083751	9.804469	-0.990815	0.134800	-0.010751	-0.134867	-0.990847	0.005777	-0.009874	0.007174	0.999926	
3722														-0.078956	0.084629	9.804167	-0.990817	0.134784	-0.010735	-0.134852	-0.990849	0.005802	-0.009855	0.007196	0.999926	
3723														-0.106941	0.068091	9.804698	-0.990820	0.134757	-0.010744	-0.134824	-0.990853	0.005791	-0.009865	0.007186	0.999926	
3724														-0.093137	0.083502	9.804479	-0.990820	0.134756	-0.010753	-0.134823	-0.990853	0.005780	-0.009875	0.007177	0.999925	
3725														-0.092921	0.083415	9.804482	-0.990826	0.134713	-0.010749	-0.134780	-0.990859	0.005787	-0.009871	0.007183	0.999925	
3726														-0.091283	0.068651	9.819046	-0.990823	0.134736	-0.010728	-0.134803	-0.990856	0.005781	-0.009851	0.007174	0.999926	
3727														-0.090911	0.068497	9.819050	-0.990826	0.134718	-0.010721	-0.134785	-0.990858	0.005773	-0.009845	0.007165	0.999926	
3728														-0.091082	0.068552	9.804407	-0.990822	0.134742	-0.010750	-0.134809	-0.990855	0.005789	-0.009872	0.007185	0.999925	
3729														-0.092141	0.083227	9.789850	-0.990823	0.134739	-0.010729	-0.134806	-0.990855	0.005783	-0.009852	0.007177	0.999926	
3730														-0.089790	0.068261	9.833704	-0.990824	0.134735	-0.010710	-0.134802	-0.990856	0.005777	-0.009833	0.007168	0.999926	
3731														-0.090053	0.068389	9.804417	-0.990820	0.134760	-0.010709	-0.134827	-0.990852	0.005799	-0.009829	0.007190	0.999926	
3732														-0.104616	0.067563	9.790086	-0.990816	0.134796	-0.010691	-0.134863	-0.990847	0.005808	-0.009810	0.007197	0.999926	
3733														-0.090215	0.083154	9.804510	-0.990819	0.134775	-0.010675	-0.134842	-0.990850	0.005832	-0.009791	0.007218	0.999926	
3734														-0.089201	0.068596	9.789782	-0.990820	0.134765	-0.010669	-0.134831	-0.990851	0.005824	-0.009787	0.007209	0.999926	
3735														-0.103669	0.067539	9.790096	-0.990816	0.134793	-0.010696	-0.134860	-0.990848	0.005825	-0.009813	0.007214	0.999926	
3736														-0.089175	0.082988	9.819162	-0.990815	0.134799	-0.010677	-0.134866	-0.990847	0.005834	-0.009793	0.007220	0.999926	
3737														-0.088791	0.068565	9.775144	-0.990816	0.134797	-0.010674	-0.134864	-0.990847	0.005841	-0.009788	0.007227	0.999926	
3738														-0.087863	0.068430	9.804437	-0.990814	0.134810	-0.010669	-0.134877	-0.990845	0.005848	-0.009783	0.007233	0.999926	
3739														-0.101936	0.067307	9.819398	-0.990815	0.134804	-0.010678	-0.134871	-0.990846	0.005838	-0.009794	0.007224	0.999926	
3740														-0.072734	0.069168	9.804129	-0.990815	0.134807	-0.010658	-0.134874	-0.990846	0.005831	-0.009774	0.007215	0.999926	
3741														-0.102638	0.081673	9.804848	-0.990814	0.134809	-0.010667	-0.134876	-0.990845	0.005821	-0.009785	0.007206	0.999926	
3742														-0.101666	0.066967	9.804762	-0.990813	0.134814	-0.010708	-0.134881	-0.990845	0.005820	-0.009825	0.007211	0.999926	
3743														-0.102748	0.081640	9.790207	-0.990814	0.134812	-0.010674	-0.134879	-0.990845	0.005832	-0.009790	0.007219	0.999926	
3744														-0.122855	-0.036735	9.819441	-0.990594	0.136421	-0.010640	-0.136489	-0.990624	0.005955	-0.009728	0.007351	0.999926	
3745														-0.047084	0.160013	9.789369	-0.990246	0.138927	-0.010544	-0.138995	-0.990275	0.006006	-0.009607	0.007413	0.999926	
3746														-0.081411	0.041009	9.818937	-0.990099	0.139979	-0.010454	-0.140048	-0.990126	0.006148	-0.009490	0.007551	0.999926	
3747														-0.068540	-0.148511	9.832499	-0.989908	0.141328	-0.010444	-0.141396	-0.989934	0.006139	-0.009471	0.007554	0.999927	
3748														-0.080046	0.291252	9.820047	-0.989611	0.143393	-0.010379	-0.143462	-0.989637	0.006181	-0.009386	0.007606	0.999927	
3749														0.206766	-0.072398	9.812062	-0.989212	0.146126	-0.010303	-0.146196	-0.989235	0.006432	-0.009253	0.007869	0.999926	
3750														-0.252805	0.020783	9.793487	-0.988866	0.148454	-0.010276	-0.148525	-0.988887	0.006515	-0.009195	0.007969	0.999926	
3751														-0.191173	0.259533	9.822417	-0.988751	0.149218	-0.010307	-0.149289	-0.988772	0.006557	-0.009213	0.008022	0.999925	
3752														-0.111574	0.146616	9.820156	-0.988696	0.149579	-0.010300	-0.149650	-0.988717	0.006552	-0.009204	0.008019	0.999925	
3753														-0.081690	0.133270	9.804786	-0.988664	0.149790	-0.010316	-0.149861	-0.988686	0.006496	-0.009226	0.007968	0.999926	
3754														-0.081220	0.132487	9.834083	-0.988639	0.149948	-0.010373	-0.150019	-0.988662	0.006417	-0.009293	0.007900	0.999926	
3755														-0.080869	0.087961	9.775266	-0.988610	0.150135	-0.010471	-0.150206	-0.988635	0.006298	-0.009407	0.007799	0.999925	
3756														0.024203	0.033656	9.787316	-0.988523	0.150702	-0.010535	-0.150772	-0.988549	0.006176	-0.009483	0.007694	0.999925	
3757														0.009572	0.031566	9.816934	-0.988282	0.152272	-0.010626	-0.152341	-0.988310	0.006044	-0.009582	0.007592	0.999925	
3758														-0.199413	0.078833	9.792497	-0.988090	0.153502	-0.010690	-0.153571	-0.988120	0.005928	-0.009653	0.007499	0.999925	
3759														-0.110905	0.067044	9.819772	-0.987992	0.154129	-0.010770	-0.154197	-0.988024	0.005724	-0.009759	0.007316	0.999926	
3760														-0.173342	0.121581	9.806766	-0.987940	0.154453	-0.010860	-0.154520	-0.987973	0.005654	-0.009856	0.007264	0.999925	
3761														-0.129980	0.137600	9.820551	-0.987960	0.154331	-0.010828	-0.154397	-0.987993	0.005586	-0.009836	0.007191	0.999926	
3762														-0.097494	0.065468	9.804815	-0.987959	0.154332	-0.010898	-0.154398	-0.987993	0.005564	-0.009909	0.007179	0.999925	
3763														-0.097400	0.065297	9.819458	-0.987951	0.154382	-0.010925	-0.154449	-0.987985	0.005565	-0.009935	0.007185	0.999925	
3764														-0.098765	0.079993	9.790261	-0.987950	0.154385	-0.010949	-0.154452	-0.987985	0.005551	-0.009960	0.007175	0.999925	
3765														-0.084134	0.080172	9.789947	-0.987953	0.154366	-0.010960	-0.154433	-0.987988	0.005463	-0.009985	0.007090	0.999925	
3766														-0.111311	0.048913	9.819689	-0.987971	0.154246	-0.010990	-0.154313	-0.988007	0.005478	-0.010013	0.007108	0.999925	
3767														-0.112127	0.063248	9.819784	-0.988022	0.153919	-0.011019	-0.153985	-0.988058	0.005412	-0.010055	0.007044	0.999925	
3768														-0.096980	0.048865	9.804731	-0.988110	0.153356	-0.010996	-0.153422	-0.988146	0.005384	-0.010040	0.007007	0.999925	
3769														-0.081568	0.049217	9.819062	-0.988266	0.152347	-0.010963	-0.152413	-0.988302	0.005386	-0.010015	0.006994	0.999925	
3770														-0.141059	0.061097	9.791151	-0.988467	0.151042	-0.010959	-0.151107	-0.988502	0.005455	-0.010009	0.007049	0.999925	
3771														0.036003	0.055892	9.816502	-0.988739	0.149247	-0.010979	-0.149313	-0.988775	0.005469	-0.010039	0.007047	0.999925	
3772														-0.056395	0.138775	9.818993	-0.989002	0.147496	-0.010946	-0.147562	-0.989038	0.005460	-0.010021	0.007016	0.999925	
3773														-0.055667	0.124236	9.804255	-0.989255	0.145788	-0.010941	-0.145854	-0.989291	0.005510	-0.010020	0.007046	0.999925	
3774														-0.052697	0.080774	9.818613	-0.989602	0.143412	-0.010958	-0.143479	-0.989637	0.005594	-0.010042	0.007108	0.999924	
3775														-0.079125	0.035421	9.818978	-0.989988	0.140729	-0.010950	-0.140796	-0.990023	0.005617	-0.010050	0.007103	0.999924	
3776														-0.141939	0.089876	9.791354	-0.990421	0.137647	-0.010965	-0.137714	-0.990456	0.005586	-0.010091	0.007043	0.999924	
3777														-0.115501	0.134618	9.820282	-0.990851	0.134512	-0.011020	-0.134578	-0.990888	0.005516	-0.010178	0.006949	0.999924	
3778														-0.050283	0.241316	9.819337	-0.991309	0.131092	-0.011007	-0.131158	-0.991346	0.005501	-0.010191	0.006896	0.999924	
3779														0.013984	0.157834	9.802837	-0.991772	0.127548	-0.010981	-0.127614	-0.991809	0.005501	-0.010189	0.006857	0.999925	
3780														-0.004312	0.009578	9.773247	-0.992273	0.123592	-0.010941	-0.123657	-0.992310	0.005500	-0.010177	0.006810	0.999925	
3781														0.002815	0.112539	9.817524	-0.992764	0.119581	-0.011004	-0.119646	-0.992802	0.005464	-0.010271	0.006741	0.999925	
3782														-0.119974	-0.001120	9.805134	-0.993226	0.115686	-0.010922	-0.115751	-0.993263	0.005501	-0.010212	0.006729	0.999925	
3783														-0.089369	0.148543	9.790472	-0.993666	0.111836	-0.010948	-0.111901	-0.993704	0.005523	-0.010262	0.006713	0.999925	
3784														-0.145863	0.127922	9.820973	-0.994093	0.107984	-0.010907	-0.108048	-0.994130	0.005523	-0.010246	0.006669	0.999925	
3785														-0.158785	0.110657	9.806584	-0.994531	0.103885	-0.010772	-0.103947	-0.994568	0.005412	-0.010151	0.006502	0.999927	
3786														-0.196936	0.045809	9.777911	-0.994993	0.099356	-0.010802	-0.099417	-0.995032	0.005253	-0.010227	0.006301	0.999928	
3787														0.058522	-0.001745	9.786483	-0.995525	0.093878	-0.010829	-0.093939	-0.995564	0.005254	-0.010288	0.006248	0.999928	
3788														-0.040742	-0.027736	9.817969	-0.995990	0.088811	-0.010813	-0.088872	-0.996029	0.005282	-0.010301	0.006222	0.999928	
3789														-0.071210	0.101412	9.804549	-0.996443	0.083558	-0.010886	-0.083619	-0.996484	0.005296	-0.010406	0.006187	0.999927	
3790														-0.196836	0.159561	9.807671	-0.996860	0.078439	-0.010815	-0.078501	-0.996899	0.005391	-0.010359	0.006223	0.999927	
3791														-0.190904	0.114095	9.822042	-0.997271	0.073038	-0.010775	-0.073097	-0.997312	0.005156	-0.010369	0.005929	0.999929	
3792														-0.191916	0.064200	9.818226	-0.997644	0.067529	-0.010777	-0.067587	-0.997685	0.005089	-0.010408	0.005805	0.999929	
3793														-0.192927	0.014305	9.814410	-0.998017	0.062019	-0.010778	-0.062076	-0.998059	0.005022	-0.010446	0.005681	0.999929	
3794														-0.021126	-0.057424	9.744212	-0.998388	0.055713	-0.010832	-0.055771	-0.998430	0.005212	-0.010525	0.005808	0.999928	
3795														0.285548	-0.098511	9.868795	-0.998722	0.049385	-0.010782	-0.049444	-0.998763	0.005322	-0.010506	0.005849	0.999928	
3796														-0.173903	0.171433	9.792512	-0.999007	0.043219	-0.010787	-0.043279	-0.999049	0.005382	-0.010544	0.005843	0.999927	
3797														-0.171504	0.066222	9.821441	-0.999279	0.036401	-0.010783	-0.036459	-0.999321	0.005247	-0.010585	0.005636	0.999928	
3798														0.056375	0.030269	9.772022	-0.999505	0.029560	-0.010762	-0.029618	-0.999548	0.005239	-0.010603	0.005555	0.999928	
3799														0.045799	0.011778	9.816187	-0.999671	0.023306	-0.010749	-0.023360	-0.999715	0.004915	-0.010631	0.005164	0.999930	
3800														-0.201997	0.054762	9.748927	-0.999794	0.017246	-0.010700	-0.017302	-0.999837	0.005181	-0.010609	0.005365	0.999929	
3801														-0.196666	0.040216	9.851335	-0.999892	0.010047	-0.010717	-0.010103	-0.999935	0.005225	-0.010663	0.005333	0.999929	
3802														-0.108897	0.116867	9.790835	-0.999939	0.003152	-0.010620	-0.003208	-0.999981	0.005212	-0.010603	0.005246	0.999930	
3803														-0.159760	0.073328	9.865198	-0.999933	-0.003967	-0.010874	0.003915	-0.999981	0.004865	-0.010893	0.004822	0.999929	
3804														0.087874	0.021262	9.771253	-0.999880	-0.011126	-0.010781	0.011072	-0.999926	0.005041	-0.010836	0.004922	0.999929	
3805														-0.168230	0.100031	9.821474	-0.999773	-0.018363	-0.010804	0.018309	-0.999819	0.005134	-0.010897	0.004935	0.999928	
3806														-0.167242	0.159946	9.836199	-0.999615	-0.025584	-0.010746	0.025529	-0.999660	0.005213	-0.010876	0.004937	0.999929	
3807														-0.017383	0.030199	9.773794	-0.999416	-0.032468	-0.010696	0.032413	-0.999461	0.005254	-0.010861	0.004904	0.999929	
3808														-0.154573	0.040930	9.821074	-0.999185	-0.038924	-0.010701	0.038870	-0.999231	0.005229	-0.010897	0.004809	0.999929	
3809														-0.203733	-0.002889	9.822228	-0.998936	-0.044888	-0.010620	0.044834	-0.998981	0.005268	-0.010845	0.004787	0.999930	
3810														-0.165937	0.142456	9.806832	-0.998675	-0.050361	-0.010631	0.050306	-0.998720	0.005335	-0.010886	0.004793	0.999929	
3811														-0.246889	0.104803	9.838056	-0.998429	-0.055007	-0.010635	0.054953	-0.998475	0.005293	-0.010910	0.004700	0.999929	
3812														-0.112167	0.048762	9.820074	-0.998155	-0.059756	-0.010804	0.059703	-0.998203	0.005206	-0.011096	0.004551	0.999928	
3813														-0.164264	-0.043486	9.806584	-0.997873	-0.064290	-0.010813	0.064238	-0.997922	0.005009	-0.011113	0.004304	0.999929	
3814														-0.185987	-0.021344	9.792496	-0.997555	-0.069050	-0.010778	0.069000	-0.997604	0.004971	-0.011096	0.004215	0.999930	
3815														-0.006244	0.044335	9.817510	-0.997232	-0.073556	-0.010869	0.073505	-0.997282	0.005016	-0.011208	0.004204	0.999928	
3816														-0.078333	0.130165	9.789995	-0.996898	-0.077940	-0.010909	0.077890	-0.996950	0.004916	-0.011259	0.004051	0.999928	
3817														-0.297526	0.200588	9.839323	-0.996543	-0.082363	-0.010880	0.082316	-0.996595	0.004746	-0.011234	0.003835	0.999930	
3818														0.063635	-0.043243	9.727858	-0.996159	-0.086900	-0.010777	0.086852	-0.996209	0.004847	-0.011157	0.003892	0.999930	
3819														-0.125082	-0.114678	9.820374	-0.995791	-0.091024	-0.010754	0.090971	-0.995840	0.005268	-0.011189	0.004267	0.999928	
3820														-0.204885	0.000108	9.822390	-0.995397	-0.095245	-0.010628	0.095192	-0.995444	0.005377	-0.011092	0.004340	0.999929	
3821														-0.208243	0.013799	9.822518	-0.995015	-0.099162	-0.010581	0.099110	-0.995062	0.005394	-0.011063	0.004319	0.999929	
3822														-0.114211	0.104291	9.820196	-0.994670	-0.102563	-0.010611	0.102511	-0.994717	0.005350	-0.011104	0.004233	0.999929	
3823														-0.096719	0.047824	9.805132	-0.994390	-0.105246	-0.010608	0.105194	-0.994437	0.005347	-0.011112	0.004201	0.999929	
3824														-0.124604	-0.007626	9.805850	-0.994148	-0.107504	-0.010590	0.107451	-0.994196	0.005407	-0.011110	0.004238	0.999929	
3825														-0.183614	0.034568	9.821964	-0.993933	-0.109480	-0.010538	0.109427	-0.993980	0.005462	-0.011072	0.004276	0.999930	
3826														-0.183349	0.127050	9.792632	-0.993744	-0.111189	-0.010476	0.111137	-0.993790	0.005464	-0.011019	0.004266	0.999930	
3827														-0.090468	0.034286	9.790400	-0.993558	-0.112836	-0.010478	0.112783	-0.993604	0.005539	-0.011036	0.004321	0.999930	
3828														-0.067036	0.011174	9.804484	-0.993382	-0.114369	-0.010549	0.114316	-0.993429	0.005518	-0.011111	0.004275	0.999929	
3829														-0.052456	-0.030736	9.818811	-0.993207	-0.115885	-0.010501	0.115832	-0.993253	0.005517	-0.011069	0.004263	0.999930	
3830														-0.070264	-0.021465	9.819271	-0.993055	-0.117181	-0.010462	0.117128	-0.993101	0.005561	-0.011041	0.004297	0.999930	
3831														-0.070765	0.071122	9.804567	-0.992915	-0.118366	-0.010497	0.118313	-0.992961	0.005549	-0.011080	0.004268	0.999930	
3832														-0.071214	0.116947	9.804540	-0.992748	-0.119750	-0.010536	0.119697	-0.992795	0.005509	-0.011120	0.004208	0.999929	
3833														-0.080404	0.051344	9.790172	-0.992567	-0.121242	-0.010548	0.121190	-0.992614	0.005455	-0.011131	0.004136	0.999929	
3834														-0.116302	-0.023672	9.805784	-0.992365	-0.122885	-0.010568	0.122833	-0.992412	0.005450	-0.011157	0.004110	0.999929	
3835														-0.084223	0.018237	9.804953	-0.992163	-0.124499	-0.010560	0.124447	-0.992211	0.005492	-0.011162	0.004135	0.999929	
3836														-0.079470	0.050864	9.819464	-0.991942	-0.126253	-0.010559	0.126200	-0.991989	0.005525	-0.011172	0.004148	0.999929	
3837														-0.116154	0.022578	9.805767	-0.991733	-0.127887	-0.010528	0.127834	-0.991780	0.005557	-0.011152	0.004165	0.999929	
3838														-0.125080	0.050228	9.820631	-0.991552	-0.129283	-0.010513	0.129230	-0.991599	0.005578	-0.011146	0.004173	0.999929	
3839														-0.148004	0.026256	9.791949	-0.991352	-0.130814	-0.010457	0.130761	-0.991398	0.005529	-0.011091	0.004113	0.999930	
3840														-0.128250	0.016760	9.806142	-0.991145	-0.132371	-0.010433	0.132320	-0.991192	0.005508	-0.011070	0.004079	0.999930	
3841														-0.156486	0.052839	9.806829	-0.990921	-0.134037	-0.010444	0.133985	-0.990968	0.005505	-0.011087	0.004056	0.999930	
3842														-0.105897	0.086343	9.820169	-0.990644	-0.136072	-0.010448	0.136020	-0.990691	0.005553	-0.011106	0.004080	0.999930	
3843														-0.051533	0.106441	9.789462	-0.990400	-0.137839	-0.010449	0.137786	-0.990446	0.005592	-0.011120	0.004099	0.999930	
3844														-0.064959	0.101611	9.804459	-0.990167	-0.139496	-0.010459	0.139443	-0.990214	0.005618	-0.011140	0.004104	0.999930	
3845														-0.070884	-0.009797	9.819405	-0.989956	-0.140985	-0.010515	0.140932	-0.990003	0.005635	-0.011204	0.004097	0.999929	
3846														-0.085306	-0.015007	9.805113	-0.989755	-0.142381	-0.010574	0.142328	-0.989804	0.005631	-0.011268	0.004068	0.999928	
3847														-0.106851	-0.039221	9.849641	-0.989531	-0.143929	-0.010640	0.143876	-0.989580	0.005612	-0.011337	0.004022	0.999928	
3848														-0.132499	0.029029	9.835542	-0.989264	-0.145752	-0.010613	0.145699	-0.989313	0.005612	-0.011318	0.004005	0.999928	
3849														-0.165267	0.032111	9.807081	-0.988967	-0.147756	-0.010587	0.147703	-0.989016	0.005603	-0.011298	0.003977	0.999928	
3850														-0.193346	0.067719	9.837060	-0.988638	-0.149945	-0.010590	0.149892	-0.988686	0.005620	-0.011313	0.003969	0.999928	
3851														-0.142161	0.055510	9.806497	-0.988269	-0.152363	-0.010514	0.152310	-0.988317	0.005627	-0.011249	0.003960	0.999929	
3852														-0.136062	0.041501	9.821039	-0.987868	-0.154940	-0.010511	0.154888	-0.987916	0.005628	-0.011256	0.003932	0.999929	
3853														-0.105390	0.084358	9.820191	-0.987440	-0.157644	-0.010490	0.157592	-0.987488	0.005656	-0.011250	0.003932	0.999929	
3854														-0.086470	0.075985	9.819723	-0.986976	-0.160525	-0.010504	0.160473	-0.987024	0.005696	-0.011282	0.003937	0.999929	
3855														-0.075735	0.048807	9.819504	-0.986502	-0.163415	-0.010477	0.163362	-0.986549	0.005740	-0.011274	0.003951	0.999929	
3856														-0.083923	0.029571	9.805114	-0.986023	-0.166282	-0.010433	0.166230	-0.986071	0.005697	-0.011235	0.003883	0.999929	
3857														-0.094959	0.056399	9.790693	-0.985526	-0.169204	-0.010462	0.169151	-0.985573	0.005735	-0.011281	0.003882	0.999929	
3858														-0.121772	0.045366	9.806057	-0.985004	-0.172213	-0.010452	0.172161	-0.985052	0.005745	-0.011286	0.003860	0.999929	
3859														-0.059381	0.085989	9.804370	-0.984467	-0.175258	-0.010468	0.175206	-0.984515	0.005721	-0.011309	0.003799	0.999929	
3860														-0.070153	0.033745	9.804760	-0.983887	-0.178482	-0.010510	0.178430	-0.983936	0.005724	-0.011363	0.003756	0.999928	
3861														-0.045389	0.012250	9.804180	-0.983288	-0.181756	-0.010470	0.181703	-0.983336	0.005778	-0.011345	0.003779	0.999928	
3862														-0.064211	0.020141	9.804652	-0.982688	-0.184972	-0.010470	0.184920	-0.982737	0.005763	-0.011355	0.003727	0.999929	
3863														-0.196704	-0.004487	9.822764	-0.982167	-0.187714	-0.010540	0.187662	-0.982217	0.005743	-0.011430	0.003663	0.999928	
3864														-0.123395	0.009841	9.820853	-0.981729	-0.189995	-0.010500	0.189944	-0.981778	0.005709	-0.011393	0.003610	0.999929	
3865														-0.201939	0.007478	9.808250	-0.981280	-0.192301	-0.010465	0.192250	-0.981329	0.005701	-0.011366	0.003583	0.999929	
3866														-0.137350	0.082093	9.850349	-0.980820	-0.194628	-0.010556	0.194576	-0.980871	0.005710	-0.011465	0.003546	0.999928	
3867														-0.162151	0.023739	9.777882	-0.980309	-0.197191	-0.010497	0.197140	-0.980359	0.005737	-0.011422	0.003555	0.999928	
3868														-0.049107	0.024392	9.818945	-0.979772	-0.199839	-0.010503	0.199788	-0.979822	0.005761	-0.011442	0.003546	0.999928	
3869														-0.062798	0.018160	9.804665	-0.979266	-0.202305	-0.010529	0.202254	-0.979316	0.005751	-0.011475	0.003502	0.999928	
3870														-0.107350	0.046239	9.805729	-0.978782	-0.204632	-0.010542	0.204580	-0.978833	0.005791	-0.011504	0.003512	0.999928	
3871														-0.055249	0.037302	9.804416	-0.978325	-0.206807	-0.010551	0.206755	-0.978376	0.005807	-0.011524	0.003500	0.999927	
3872														-0.073824	0.044715	9.819538	-0.977880	-0.208902	-0.010503	0.208851	-0.977930	0.005833	-0.011490	0.003510	0.999928	
3873														-0.053000	0.070052	9.804282	-0.977415	-0.211069	-0.010475	0.211017	-0.977465	0.005842	-0.011472	0.003499	0.999928	
3874														0.019121	0.054259	9.817126	-0.976877	-0.213548	-0.010460	0.213496	-0.976926	0.005850	-0.011468	0.003481	0.999928	
3875														-0.048544	-0.008868	9.819094	-0.976340	-0.215990	-0.010460	0.215938	-0.976389	0.005880	-0.011483	0.003482	0.999928	
3876														-0.081354	-0.007981	9.805298	-0.975737	-0.218698	-0.010435	0.218646	-0.975786	0.005900	-0.011473	0.003475	0.999928	
3877														-0.026786	0.049070	9.803695	-0.975129	-0.221391	-0.010423	0.221340	-0.975179	0.005880	-0.011466	0.003426	0.999928	
3878														-0.208717	0.092590	9.822922	-0.974478	-0.224239	-0.010481	0.224189	-0.974528	0.005814	-0.011517	0.003316	0.999928	
3879														-0.164546	0.031350	9.807348	-0.973686	-0.227659	-0.010390	0.227608	-0.973736	0.005793	-0.011436	0.003276	0.999929	
3880														-0.111181	0.087870	9.791113	-0.972760	-0.231579	-0.010486	0.231530	-0.972811	0.005681	-0.011517	0.003098	0.999929	
3881														-0.152079	-0.031045	9.807254	-0.971681	-0.236065	-0.010483	0.236017	-0.971733	0.005581	-0.011504	0.002949	0.999929	
3882														-0.084850	0.065683	9.805171	-0.970629	-0.240353	-0.010459	0.240305	-0.970681	0.005651	-0.011510	0.002971	0.999929	
3883														-0.097705	0.059406	9.790901	-0.969576	-0.244572	-0.010340	0.244524	-0.969627	0.005683	-0.011416	0.002982	0.999930	
3884														-0.116597	0.000492	9.806302	-0.968588	-0.248457	-0.010354	0.248409	-0.968638	0.005707	-0.011447	0.002955	0.999930	
3885														-0.123105	0.112047	9.806020	-0.967568	-0.252399	-0.010317	0.252349	-0.967619	0.005835	-0.011456	0.003042	0.999930	
3886														-0.031412	0.126051	9.818195	-0.966305	-0.257191	-0.010358	0.257141	-0.966356	0.005879	-0.011521	0.003018	0.999929	
3887														0.074239	0.015877	9.801262	-0.964934	-0.262293	-0.010274	0.262244	-0.964984	0.005853	-0.011450	0.002954	0.999930	
3888														-0.002064	-0.003677	9.807025	-0.963512	-0.267413	-0.010330	0.267365	-0.963563	0.005812	-0.011508	0.002838	0.999930	
3889														-0.078366	-0.023231	9.812787	-0.962090	-0.272533	-0.010386	0.272486	-0.962143	0.005770	-0.011565	0.002722	0.999929	
3890														-0.027820	-0.072360	9.789727	-0.960377	-0.278513	-0.010331	0.278467	-0.960429	0.005746	-0.011522	0.002642	0.999930	
3891														-0.078058	-0.099971	9.791229	-0.958488	-0.284948	-0.010287	0.284901	-0.958539	0.005885	-0.011537	0.002710	0.999930	
3892														-0.139760	0.015843	9.821598	-0.956485	-0.291603	-0.010215	0.291555	-0.956536	0.005930	-0.011500	0.002694	0.999930	
3893														-0.204240	0.129879	9.808034	-0.954572	-0.297804	-0.010211	0.297757	-0.954623	0.005930	-0.011514	0.002620	0.999930	
3894														-0.201338	0.063541	9.793675	-0.952816	-0.303379	-0.010138	0.303331	-0.952866	0.006006	-0.011482	0.002647	0.999931	
3895														-0.182887	0.090299	9.793049	-0.951078	-0.308787	-0.010066	0.308740	-0.951128	0.006001	-0.011427	0.002599	0.999931	
3896														-0.159602	0.052120	9.821989	-0.949168	-0.314611	-0.010012	0.314563	-0.949217	0.006096	-0.011421	0.002637	0.999931	
3897														-0.081825	-0.021604	9.820405	-0.947056	-0.320912	-0.010004	0.320865	-0.947105	0.006099	-0.011432	0.002566	0.999931	
3898														-0.136567	0.012609	9.821647	-0.944802	-0.327491	-0.009964	0.327444	-0.944851	0.006083	-0.011407	0.002484	0.999932	
3899														-0.092230	0.107662	9.805193	-0.942609	-0.333752	-0.009932	0.333705	-0.942658	0.006123	-0.011406	0.002457	0.999932	
3900														-0.174667	0.073043	9.807618	-0.940372	-0.340003	-0.009928	0.339956	-0.940422	0.006089	-0.011407	0.002351	0.999932	
3901														-0.144112	-0.030423	9.822200	-0.938055	-0.346346	-0.009892	0.346300	-0.938104	0.006140	-0.011406	0.002334	0.999932	
3902														-0.208121	0.014425	9.808933	-0.935661	-0.352762	-0.009884	0.352715	-0.935710	0.006165	-0.011423	0.002282	0.999932	
3903														-0.102052	0.012194	9.820789	-0.933345	-0.358845	-0.009892	0.358798	-0.933395	0.006186	-0.011453	0.002225	0.999932	
3904														-0.013628	-0.017401	9.774721	-0.931098	-0.364638	-0.009818	0.364591	-0.931147	0.006221	-0.011410	0.002213	0.999932	
3905														0.008493	-0.020860	9.818143	-0.928794	-0.370466	-0.009808	0.370419	-0.928843	0.006276	-0.011435	0.002196	0.999932	
3906														0.098441	-0.048355	9.801348	-0.926119	-0.377106	-0.009728	0.377060	-0.926168	0.006271	-0.011375	0.002140	0.999933	
3907														0.229514	-0.028945	9.797742	-0.923020	-0.384630	-0.009665	0.384584	-0.923068	0.006284	-0.011338	0.002084	0.999934	
3908														0.228900	0.025943	9.797316	-0.919529	-0.392902	-0.009704	0.392857	-0.919578	0.006251	-0.011380	0.001936	0.999933	
3909														0.018709	-0.105218	9.818702	-0.915647	-0.401868	-0.009626	0.401823	-0.915696	0.006255	-0.011328	0.001860	0.999934	
3910														0.056186	-0.205671	9.774692	-0.911486	-0.411217	-0.009679	0.411174	-0.911536	0.006204	-0.011374	0.001675	0.999934	
3911														0.080648	-0.281061	9.833418	-0.907299	-0.420375	-0.009650	0.420332	-0.907349	0.006219	-0.011370	0.001586	0.999934	
3912														-0.281387	-0.117427	9.797557	-0.902840	-0.429871	-0.009512	0.429829	-0.902889	0.006208	-0.011256	0.001516	0.999935	
3913														-0.250297	-0.061019	9.825550	-0.898359	-0.439159	-0.009527	0.439117	-0.898408	0.006206	-0.011284	0.001392	0.999935	
3914														-0.327375	0.080711	9.811514	-0.894028	-0.447910	-0.009494	0.447868	-0.894078	0.006277	-0.011300	0.001359	0.999935	
3915														-0.305258	0.096177	9.796100	-0.889361	-0.457109	-0.009443	0.457068	-0.889410	0.006279	-0.011268	0.001268	0.999936	
3916														-0.194640	0.051764	9.808296	-0.884521	-0.466406	-0.009409	0.466366	-0.884570	0.006248	-0.011238	0.001139	0.999936	
3917														-0.180957	-0.034711	9.794217	-0.879566	-0.475685	-0.009367	0.475645	-0.879615	0.006263	-0.011218	0.001053	0.999937	
3918														-0.160190	-0.057974	9.823257	-0.874546	-0.484852	-0.009359	0.484812	-0.874596	0.006300	-0.011240	0.000972	0.999936	
3919														-0.137607	-0.039889	9.807830	-0.869523	-0.493806	-0.009261	0.493766	-0.869572	0.006310	-0.011170	0.000914	0.999937	
3920														-0.190671	-0.090295	9.809834	-0.864317	-0.502864	-0.009202	0.502825	-0.864365	0.006323	-0.011134	0.000838	0.999938	
3921														0.097080	0.093566	9.770862	-0.859524	-0.511013	-0.009153	0.510974	-0.859573	0.006317	-0.011095	0.000753	0.999938	
3922														-0.103630	0.308163	9.788055	-0.855923	-0.517023	-0.009134	0.516985	-0.855971	0.006351	-0.011102	0.000714	0.999938	
3923														-0.304440	0.157477	9.824423	-0.852478	-0.522686	-0.009009	0.522648	-0.852525	0.006347	-0.010998	0.000702	0.999939	
3924														-0.314423	0.248704	9.794187	-0.848913	-0.528456	-0.009021	0.528418	-0.848960	0.006364	-0.011021	0.000636	0.999939	
3925														-0.253367	0.246203	9.807239	-0.845174	-0.534415	-0.009003	0.534377	-0.845222	0.006365	-0.011011	0.000568	0.999939	
3926														-0.265310	0.213382	9.807922	-0.841046	-0.540888	-0.009006	0.540851	-0.841094	0.006396	-0.011035	0.000508	0.999939	
3927														-0.264979	0.108236	9.853230	-0.836440	-0.547985	-0.008991	0.547948	-0.836488	0.006377	-0.011016	0.000407	0.999939	
3928														-0.160808	-0.038084	9.808567	-0.831153	-0.555971	-0.008951	0.555935	-0.831201	0.006391	-0.010993	0.000336	0.999940	
3929														-0.145960	-0.173813	9.810101	-0.825633	-0.564138	-0.008877	0.564102	-0.825681	0.006378	-0.010928	0.000259	0.999940	
3930														-0.055067	-0.037559	9.805904	-0.820156	-0.572072	-0.008859	0.572037	-0.820204	0.006346	-0.010896	0.000137	0.999941	
3931														0.342807	0.134766	9.807987	-0.815833	-0.578219	-0.008846	0.578185	-0.815881	0.006338	-0.010882	0.000056	0.999941	
3932														-0.435473	0.128271	9.798519	-0.811140	-0.584786	-0.008783	0.584752	-0.811188	0.006302	-0.010810	-0.000024	0.999942	
3933														-0.280359	-0.031942	9.826241	-0.805894	-0.591995	-0.008765	0.591962	-0.805942	0.006258	-0.010769	-0.000145	0.999942	
3934														-0.138002	0.016550	9.807268	-0.800476	-0.599302	-0.008704	0.599269	-0.800523	0.006246	-0.010711	-0.000216	0.999943	
3935														-0.090427	-0.064410	9.778000	-0.795082	-0.606441	-0.008670	0.606409	-0.795129	0.006236	-0.010675	-0.000299	0.999943	
3936														-0.119971	0.057478	9.820830	-0.789609	-0.613549	-0.008691	0.613517	-0.789656	0.006273	-0.010712	-0.000379	0.999943	
3937														-0.253727	0.032893	9.809871	-0.784066	-0.620616	-0.008673	0.620585	-0.784114	0.006264	-0.010688	-0.000471	0.999943	
3938														-0.282871	-0.076174	9.841636	-0.778359	-0.627761	-0.008575	0.627730	-0.778406	0.006242	-0.010593	-0.000524	0.999944	
3939														0.771164	-0.167643	9.816940	-0.774511	-0.632503	-0.008520	0.632474	-0.774557	0.006144	-0.010485	-0.000631	0.999945	
3940														-0.346994	0.119569	9.781496	-0.771109	-0.636646	-0.008523	0.636616	-0.771156	0.006153	-0.010490	-0.000682	0.999945	
3941														-0.231454	0.027689	9.794754	-0.766504	-0.642183	-0.008544	0.642154	-0.766551	0.006152	-0.010500	-0.000771	0.999945	
3942														0.162002	0.057674	9.813832	-0.761689	-0.647886	-0.008574	0.647857	-0.761737	0.006175	-0.010532	-0.000851	0.999944	
3943														-0.231222	-0.122472	9.797231	-0.756978	-0.653385	-0.008510	0.653357	-0.757025	0.006129	-0.010447	-0.000920	0.999945	
3944														-0.232351	-0.030336	9.810398	-0.751936	-0.659181	-0.008483	0.659154	-0.751983	0.006089	-0.010393	-0.001013	0.999945	
3945														-0.088704	-0.135056	9.823351	-0.746773	-0.665027	-0.008317	0.664999	-0.746819	0.006103	-0.010270	-0.000973	0.999947	
3946														-0.099828	-0.053018	9.822282	-0.741590	-0.670804	-0.008174	0.670777	-0.741634	0.006105	-0.010158	-0.000955	0.999948	
3947														-0.063817	0.173603	9.832087	-0.735609	-0.677358	-0.008134	0.677331	-0.735653	0.006095	-0.010112	-0.001026	0.999948	
3948														0.108736	-0.142948	9.818865	-0.729006	-0.684460	-0.008060	0.684434	-0.729049	0.006044	-0.010013	-0.001110	0.999949	
3949														-0.101418	-0.141232	9.780047	-0.723032	-0.690768	-0.008070	0.690742	-0.723076	0.006045	-0.010011	-0.001203	0.999949	
3950														-0.082328	-0.063947	9.822172	-0.716541	-0.697499	-0.007990	0.697474	-0.716585	0.006043	-0.009941	-0.001243	0.999950	
3951														0.142124	-0.070724	9.787596	-0.710453	-0.703700	-0.007910	0.703676	-0.710496	0.006002	-0.009844	-0.001303	0.999951	
3952														0.036766	0.034797	9.817514	-0.705282	-0.708883	-0.007858	0.708859	-0.705325	0.005963	-0.009769	-0.001364	0.999951	
3953														-0.721883	0.149099	9.818976	-0.699743	-0.714352	-0.007823	0.714329	-0.699785	0.005927	-0.009709	-0.001441	0.999952	
3954														-0.495979	0.174883	9.798349	-0.693516	-0.720399	-0.007806	0.720377	-0.693559	0.005846	-0.009626	-0.001569	0.999952	
3955														-0.443283	0.002576	9.815100	-0.686792	-0.726815	-0.007588	0.726793	-0.686832	0.005796	-0.009424	-0.001534	0.999954	
3956														-0.669212	0.132718	9.788684	-0.679547	-0.733593	-0.007584	0.733572	-0.679587	0.005769	-0.009386	-0.001643	0.999955	
3957														-0.290861	0.194822	9.778343	-0.672254	-0.740283	-0.007495	0.740263	-0.672293	0.005647	-0.009219	-0.001752	0.999956	
3958														-0.282831	0.087208	9.794984	-0.665962	-0.745949	-0.007372	0.745930	-0.666001	0.005584	-0.009075	-0.001780	0.999957	
3959														-0.371005	0.135330	9.840067	-0.659266	-0.751874	-0.007345	0.751855	-0.659305	0.005543	-0.009010	-0.001868	0.999958	
3960														0.570670	0.236706	9.859467	-0.655149	-0.755464	-0.007375	0.755446	-0.655188	0.005481	-0.008972	-0.001980	0.999958	
3961														-1.264504	0.077067	9.833168	-0.650301	-0.759641	-0.007312	0.759624	-0.650339	0.005468	-0.008908	-0.001998	0.999958	
3962														-0.507456	0.040564	9.790291	-0.642948	-0.765815	-0.007336	0.765798	-0.642986	0.005430	-0.008875	-0.002126	0.999958	
3963														0.249592	0.004061	9.747414	-0.635595	-0.771988	-0.007360	0.771972	-0.635633	0.005392	-0.008841	-0.002254	0.999958	
3964														0.111473	-0.026676	9.846614	-0.629551	-0.776924	-0.007378	0.776909	-0.629590	0.005361	-0.008810	-0.002357	0.999958	
3965														-0.027975	0.088984	9.774114	-0.623650	-0.781667	-0.007525	0.781653	-0.623690	0.005302	-0.008838	-0.002576	0.999958	
3966														0.355430	-0.096050	9.842467	-0.617915	-0.786209	-0.007524	0.786196	-0.617955	0.005255	-0.008781	-0.002668	0.999958	
3967														0.143904	-0.060472	9.758679	-0.612760	-0.790232	-0.007598	0.790219	-0.612801	0.005292	-0.008838	-0.002761	0.999957	
3968														-0.435134	-0.158901	9.818005	-0.607349	-0.794399	-0.007610	0.794386	-0.607390	0.005257	-0.008799	-0.002852	0.999957	
3969														-0.086346	0.242274	9.801345	-0.601849	-0.798574	-0.007588	0.798562	-0.601890	0.005225	-0.008740	-0.002915	0.999958	
3970														0.541870	0.244996	9.772362	-0.602046	-0.798426	-0.007510	0.798413	-0.602086	0.005319	-0.008768	-0.002794	0.999958	
3971														-2.137592	0.366974	9.815732	-0.598079	-0.801402	-0.007521	0.801389	-0.598120	0.005298	-0.008745	-0.002859	0.999958	
3972														0.568404	0.095872	9.848386	-0.590360	-0.807105	-0.007541	0.807093	-0.590400	0.005302	-0.008732	-0.002956	0.999958	
3973														1.581421	-0.469867	9.794407	-0.584871	-0.811090	-0.007664	0.811079	-0.584913	0.005228	-0.008723	-0.003159	0.999957	
3974														1.131278	-0.553234	9.835784	-0.580041	-0.814550	-0.007778	0.814540	-0.580084	0.005231	-0.008773	-0.003301	0.999956	
3975														0.151332	-0.311550	9.778915	-0.574176	-0.818693	-0.007919	0.818682	-0.574221	0.005403	-0.008971	-0.003381	0.999954	
3976														-0.240119	-0.228011	9.800254	-0.568804	-0.822435	-0.007913	0.822426	-0.568848	0.005284	-0.008847	-0.003503	0.999955	
3977														-0.185107	-0.138838	9.855683	-0.564003	-0.825735	-0.007930	0.825725	-0.564048	0.005366	-0.008904	-0.003521	0.999954	
3978														-0.401438	-0.009233	9.754832	-0.559883	-0.828534	-0.007875	0.828525	-0.559927	0.005302	-0.008802	-0.003556	0.999955	
3979														0.351307	0.135991	9.837903	-0.556805	-0.830604	-0.008118	0.830597	-0.556850	0.005081	-0.008741	-0.003913	0.999954	
3980														-1.195475	0.441119	9.879041	-0.556174	-0.831028	-0.007908	0.831020	-0.556218	0.005156	-0.008683	-0.003704	0.999955	
3981														-0.807125	0.108537	9.716908	-0.549104	-0.835715	-0.008013	0.835709	-0.549149	0.005116	-0.008676	-0.003887	0.999955	
3982														0.847935	-0.201884	9.849735	-0.542242	-0.840184	-0.008040	0.840178	-0.542287	0.005149	-0.008686	-0.003963	0.999954	
3983														0.392509	-0.077673	9.768750	-0.535920	-0.844230	-0.008059	0.844224	-0.535966	0.005124	-0.008645	-0.004058	0.999954	
3984														0.036698	-0.117052	9.850449	-0.530275	-0.847786	-0.008217	0.847781	-0.530321	0.005171	-0.008741	-0.004224	0.999953	
3985														-0.118806	-0.250594	9.798147	-0.524348	-0.851465	-0.008188	0.851460	-0.524395	0.005186	-0.008709	-0.004253	0.999953	
3986														-0.097551	-0.241389	9.826843	-0.518438	-0.855076	-0.008159	0.855071	-0.518485	0.005201	-0.008678	-0.004280	0.999953	
3987														0.280437	0.048391	9.841609	-0.513452	-0.858077	-0.008410	0.858075	-0.513500	0.005040	-0.008643	-0.004628	0.999952	
3988														-0.443662	0.284709	9.806961	-0.508958	-0.860749	-0.008510	0.860749	-0.509006	0.004923	-0.008569	-0.004819	0.999952	
3989														-0.114649	0.299963	9.858479	-0.503243	-0.864104	-0.008437	0.864104	-0.503290	0.004890	-0.008472	-0.004829	0.999952	
3990														0.239199	-0.031248	9.741748	-0.498010	-0.867130	-0.008463	0.867130	-0.498058	0.004862	-0.008431	-0.004917	0.999952	
3991														0.218831	-0.298282	9.807052	-0.493394	-0.869764	-0.008557	0.869765	-0.493443	0.004875	-0.008462	-0.005038	0.999952	
3992														0.161546	-0.341537	9.823847	-0.489295	-0.872075	-0.008733	0.872078	-0.489344	0.004784	-0.008445	-0.005275	0.999950	
3993														0.008051	-0.143124	9.822247	-0.485563	-0.874157	-0.008847	0.874160	-0.485614	0.004874	-0.008557	-0.005367	0.999949	
3994														-0.228677	-0.066789	9.814153	-0.481998	-0.876118	-0.008839	0.876122	-0.482049	0.004845	-0.008505	-0.005409	0.999949	
3995														-0.465405	0.009546	9.806058	-0.478432	-0.878080	-0.008831	0.878084	-0.478483	0.004815	-0.008453	-0.005451	0.999949	
3996														0.069186	-0.099412	9.805404	-0.473989	-0.880487	-0.008729	0.880491	-0.474038	0.004745	-0.008316	-0.005436	0.999951	
3997														0.036404	0.107347	9.771882	-0.470691	-0.882254	-0.008748	0.882259	-0.470741	0.004752	-0.008310	-0.005481	0.999950	
3998														0.151229	0.029280	9.786104	-0.467490	-0.883953	-0.008992	0.883958	-0.467542	0.004782	-0.008431	-0.005713	0.999948	
3999														-0.027939	-0.072967	9.850598	-0.465019	-0.885255	-0.009041	0.885261	-0.465071	0.004769	-0.008426	-0.005786	0.999948	
4000														0.074253	-0.087055	9.804971	-0.463026	-0.886298	-0.009075	0.886304	-0.463078	0.004792	-0.008450	-0.005825	0.999947	
4001														0.285296	0.022373	9.768996	-0.461501	-0.887093	-0.009087	0.887099	-0.461554	0.004795	-0.008448	-0.005848	0.999947	
4002														-0.101242	-0.177205	9.795829	-0.461386	-0.887153	-0.009128	0.887159	-0.461439	0.004856	-0.008520	-0.005857	0.999947	
4003														-0.483523	-0.135789	9.831541	-0.460795	-0.887459	-0.009181	0.887466	-0.460849	0.004779	-0.008472	-0.005945	0.999946	
4004														-0.112783	-0.342416	9.799874	-0.460324	-0.887702	-0.009285	0.887712	-0.460377	0.004594	-0.008352	-0.006128	0.999946	
4005														0.036340	-0.127131	9.747933	-0.459977	-0.887881	-0.009404	0.887892	-0.460030	0.004450	-0.008277	-0.006302	0.999946	
4006														-0.035721	-0.062182	9.806426	-0.459862	-0.887940	-0.009498	0.887952	-0.459916	0.004435	-0.008306	-0.006394	0.999945	
4007														-0.070631	-0.082761	9.851527	-0.459837	-0.887952	-0.009551	0.887964	-0.459892	0.004436	-0.008331	-0.006441	0.999945	
4008														-0.091882	-0.048090	9.821828	-0.459787	-0.887978	-0.009576	0.887990	-0.459841	0.004424	-0.008332	-0.006470	0.999944	
4009														-0.081714	-0.067196	9.792750	-0.459756	-0.887993	-0.009628	0.888006	-0.459810	0.004389	-0.008324	-0.006532	0.999944	
4010														-0.049528	-0.059584	9.791974	-0.459767	-0.887990	-0.009406	0.888000	-0.459821	0.004550	-0.008365	-0.006260	0.999945	
4011														-0.092146	-0.046102	9.792560	-0.459772	-0.887989	-0.009244	0.887997	-0.459825	0.004688	-0.008414	-0.006053	0.999946	
4012														-0.066883	-0.065477	9.821875	-0.459785	-0.887984	-0.009120	0.887991	-0.459837	0.004741	-0.008404	-0.005919	0.999947	
4013														-0.077178	-0.046745	9.807028	-0.459840	-0.887956	-0.009004	0.887962	-0.459892	0.004782	-0.008387	-0.005796	0.999948	
4014														-0.064711	-0.106350	9.764409	-0.459995	-0.887884	-0.008129	0.887881	-0.460042	0.005331	-0.008473	-0.004765	0.999953	
4015														-0.053154	-0.116961	9.837907	-0.460307	-0.887723	-0.008046	0.887719	-0.460354	0.005409	-0.008506	-0.004652	0.999953	
4016														-0.158079	-0.225227	9.813383	-0.460697	-0.887522	-0.007928	0.887517	-0.460743	0.005455	-0.008494	-0.004523	0.999954	
4017														-0.150964	0.030679	9.792285	-0.460183	-0.887789	-0.007908	0.887784	-0.460229	0.005464	-0.008490	-0.004506	0.999954	
4018														-0.221936	-0.010844	9.809378	-0.460039	-0.887863	-0.007940	0.887858	-0.460085	0.005437	-0.008480	-0.004548	0.999954	
4019														0.012241	-0.043603	9.776254	-0.459977	-0.887895	-0.007930	0.887891	-0.460023	0.005357	-0.008404	-0.004576	0.999954	
4020														0.100508	0.114693	9.785240	-0.460553	-0.887596	-0.008020	0.887592	-0.460599	0.005319	-0.008415	-0.004669	0.999954	
4021														-0.039170	-0.014464	9.820506	-0.460614	-0.887564	-0.008013	0.887560	-0.460660	0.005377	-0.008464	-0.004635	0.999953	
4022														-0.268932	-0.136178	9.798759	-0.460138	-0.887811	-0.008021	0.887806	-0.460185	0.005433	-0.008515	-0.004621	0.999953	
4023														-0.096604	-0.059813	9.822767	-0.459101	-0.888348	-0.008016	0.888343	-0.459148	0.005405	-0.008482	-0.004640	0.999953	
4024														-0.046259	0.017497	9.775926	-0.458248	-0.888790	-0.007808	0.888784	-0.458293	0.005487	-0.008455	-0.004425	0.999954	
4025														-0.055727	0.036768	9.790333	-0.457765	-0.889039	-0.007767	0.889033	-0.457810	0.005433	-0.008386	-0.004418	0.999955	
4026														0.065811	0.035427	9.787951	-0.457725	-0.889060	-0.007751	0.889055	-0.457769	0.005401	-0.008350	-0.004418	0.999955	
4027														-0.126476	-0.065382	9.794335	-0.457621	-0.889114	-0.007702	0.889108	-0.457665	0.005402	-0.008328	-0.004375	0.999956	
4028														-0.033457	-0.058650	9.806970	-0.457258	-0.889301	-0.007688	0.889295	-0.457302	0.005433	-0.008347	-0.004353	0.999956	
4029														-0.083389	-0.076083	9.793766	-0.457001	-0.889433	-0.007653	0.889427	-0.457045	0.005441	-0.008338	-0.004320	0.999956	
4030														-0.028849	-0.043655	9.821187	-0.457142	-0.889361	-0.007617	0.889355	-0.457186	0.005454	-0.008333	-0.004281	0.999956	
4031														-0.046384	0.005915	9.791007	-0.457387	-0.889236	-0.007560	0.889229	-0.457430	0.005475	-0.008327	-0.004219	0.999956	
4032														-0.056725	-0.035817	9.806940	-0.457721	-0.889064	-0.007516	0.889057	-0.457764	0.005471	-0.008304	-0.004178	0.999957	
4033														-0.059929	-0.049926	9.792737	-0.458078	-0.888881	-0.007423	0.888874	-0.458120	0.005427	-0.008224	-0.004112	0.999958	
4034														-0.093918	-0.009348	9.807110	-0.457926	-0.888960	-0.007313	0.888953	-0.457967	0.005451	-0.008195	-0.004005	0.999958	
4035														-0.033498	-0.009581	9.791254	-0.457836	-0.889007	-0.007258	0.888999	-0.457877	0.005502	-0.008215	-0.003933	0.999959	
4036														-0.051803	-0.020356	9.777243	-0.457811	-0.889019	-0.007326	0.889011	-0.457853	0.005544	-0.008283	-0.003975	0.999958	
4037														-0.073557	-0.045348	9.778303	-0.457768	-0.889041	-0.007351	0.889033	-0.457809	0.005565	-0.008313	-0.003988	0.999957	
4038														-0.054692	-0.033901	9.821597	-0.457747	-0.889052	-0.007350	0.889043	-0.457789	0.005573	-0.008320	-0.003983	0.999957	
4039														-0.068958	-0.030712	9.807153	-0.457725	-0.889063	-0.007369	0.889055	-0.457767	0.005575	-0.008330	-0.004000	0.999957	
4040														-0.068642	-0.030730	9.821793	-0.457670	-0.889091	-0.007429	0.889083	-0.457712	0.005595	-0.008375	-0.004045	0.999957	
4041														-0.072913	-0.046024	9.792942	-0.457649	-0.889102	-0.007447	0.889093	-0.457691	0.005596	-0.008384	-0.004060	0.999957	
4042														-0.082863	-0.027723	9.807350	-0.457600	-0.889128	-0.007405	0.889119	-0.457642	0.005621	-0.008386	-0.004012	0.999957	
4043														-0.068992	-0.032049	9.777874	-0.457517	-0.889170	-0.007411	0.889161	-0.457560	0.005616	-0.008384	-0.004020	0.999957	
4044														-0.071868	-0.045630	9.807588	-0.457466	-0.889196	-0.007422	0.889187	-0.457509	0.005632	-0.008404	-0.004023	0.999957	
4045														-0.057528	-0.049410	9.807391	-0.457404	-0.889228	-0.007421	0.889219	-0.457446	0.005640	-0.008410	-0.004019	0.999957	
4046														-0.067853	-0.031635	9.807158	-0.457363	-0.889249	-0.007434	0.889240	-0.457406	0.005655	-0.008429	-0.004024	0.999956	
4047														-0.081853	-0.027924	9.807357	-0.457325	-0.889269	-0.007413	0.889260	-0.457367	0.005674	-0.008436	-0.003997	0.999956	
4048														-0.063703	-0.017330	9.806729	-0.457290	-0.889287	-0.007396	0.889278	-0.457333	0.005674	-0.008428	-0.003982	0.999957	
4049														-0.071087	-0.046035	9.792955	-0.457243	-0.889311	-0.007395	0.889302	-0.457286	0.005684	-0.008436	-0.003977	0.999957	
4050														-0.070758	-0.046090	9.792957	-0.457177	-0.889345	-0.007387	0.889336	-0.457219	0.005673	-0.008422	-0.003976	0.999957	
4051														-0.048624	-0.020955	9.806535	-0.457134	-0.889367	-0.007357	0.889358	-0.457176	0.005699	-0.008432	-0.003938	0.999957	
4052														-0.065681	-0.030582	9.836451	-0.457084	-0.889393	-0.007356	0.889383	-0.457127	0.005709	-0.008440	-0.003932	0.999957	
4053														-0.070273	-0.046121	9.778324	-0.457024	-0.889424	-0.007321	0.889414	-0.457066	0.005718	-0.008432	-0.003898	0.999957	
4054														-0.037659	-0.038938	9.792131	-0.456983	-0.889445	-0.007338	0.889435	-0.457025	0.005719	-0.008441	-0.003913	0.999957	
4055														-0.083410	-0.041889	9.807809	-0.456943	-0.889466	-0.007350	0.889456	-0.456985	0.005734	-0.008459	-0.003917	0.999957	
4056														-0.079515	-0.027756	9.807377	-0.456899	-0.889488	-0.007335	0.889478	-0.456942	0.005737	-0.008454	-0.003903	0.999957	
4057														-0.064820	-0.031246	9.807179	-0.456870	-0.889504	-0.007280	0.889494	-0.456911	0.005716	-0.008411	-0.003863	0.999957	
4058														-0.064385	-0.031316	9.807182	-0.456806	-0.889536	-0.007319	0.889527	-0.456848	0.005707	-0.008421	-0.003904	0.999957	
4059														-0.082037	-0.042064	9.807820	-0.456803	-0.889538	-0.007320	0.889528	-0.456845	0.005716	-0.008429	-0.003900	0.999957	
4060														-0.070447	0.000837	9.821161	-0.456734	-0.889573	-0.007305	0.889563	-0.456776	0.005723	-0.008428	-0.003885	0.999957	
4061														-0.053056	-0.049356	9.807416	-0.456697	-0.889593	-0.007288	0.889583	-0.456739	0.005723	-0.008420	-0.003869	0.999957	
4062														-0.077068	-0.027578	9.822034	-0.456647	-0.889618	-0.007297	0.889608	-0.456689	0.005707	-0.008410	-0.003885	0.999957	
4063														-0.066178	-0.045540	9.822265	-0.456584	-0.889650	-0.007285	0.889641	-0.456626	0.005711	-0.008407	-0.003874	0.999957	
4064														-0.062909	-0.032139	9.792552	-0.456575	-0.889655	-0.007293	0.889645	-0.456617	0.005726	-0.008425	-0.003874	0.999957	
4065														-0.076417	-0.027803	9.822039	-0.456519	-0.889684	-0.007298	0.889674	-0.456561	0.005754	-0.008451	-0.003866	0.999957	
4066														-0.061920	-0.031634	9.821834	-0.456459	-0.889715	-0.007302	0.889705	-0.456501	0.005715	-0.008418	-0.003889	0.999957	
4067														-0.075990	-0.028506	9.807403	-0.456435	-0.889727	-0.007300	0.889717	-0.456477	0.005723	-0.008424	-0.003883	0.999957	
4068														-0.043689	-0.021655	9.806556	-0.456375	-0.889758	-0.007284	0.889748	-0.456417	0.005725	-0.008418	-0.003868	0.999957	
4069														-0.050736	-0.050109	9.807425	-0.456340	-0.889776	-0.007302	0.889766	-0.456381	0.005724	-0.008426	-0.003885	0.999957	
4070														-0.071371	-0.014188	9.821614	-0.456311	-0.889790	-0.007308	0.889780	-0.456353	0.005749	-0.008450	-0.003879	0.999957	
4071														-0.065001	-0.046973	9.792993	-0.456242	-0.889826	-0.007309	0.889816	-0.456284	0.005756	-0.008456	-0.003877	0.999957	
4072														-0.074934	-0.028763	9.807410	-0.456202	-0.889846	-0.007291	0.889836	-0.456244	0.005758	-0.008450	-0.003861	0.999957	
4073														-0.078305	-0.042936	9.807846	-0.456164	-0.889866	-0.007289	0.889856	-0.456205	0.005766	-0.008457	-0.003856	0.999957	
4074														-0.088409	-0.024756	9.822263	-0.456124	-0.889886	-0.007296	0.889876	-0.456166	0.005802	-0.008491	-0.003847	0.999957	
4075														-0.060204	-0.032633	9.807204	-0.456038	-0.889930	-0.007320	0.889920	-0.456080	0.005791	-0.008492	-0.003873	0.999956	
4076														-0.063919	-0.047494	9.792998	-0.455980	-0.889960	-0.007339	0.889949	-0.456023	0.005791	-0.008500	-0.003890	0.999956	
4077														-0.087804	-0.025415	9.822267	-0.455948	-0.889976	-0.007335	0.889966	-0.455991	0.005796	-0.008503	-0.003886	0.999956	
4078														-0.062907	-0.046886	9.822281	-0.455907	-0.889997	-0.007330	0.889987	-0.455949	0.005818	-0.008520	-0.003871	0.999956	
4079														-0.059442	-0.032993	9.807208	-0.455876	-0.890013	-0.007325	0.890002	-0.455919	0.005837	-0.008535	-0.003858	0.999956	
4080														-0.063057	-0.047491	9.793003	-0.455814	-0.890045	-0.007302	0.890034	-0.455856	0.005821	-0.008510	-0.003846	0.999956	
4081														-0.073207	-0.029671	9.792784	-0.455742	-0.890082	-0.007305	0.890071	-0.455784	0.005828	-0.008517	-0.003846	0.999956	
4082														-0.069436	-0.015411	9.792351	-0.455738	-0.890084	-0.007288	0.890073	-0.455780	0.005864	-0.008541	-0.003815	0.999956	
4083														-0.076274	-0.043330	9.807861	-0.455661	-0.890123	-0.007283	0.890112	-0.455704	0.005872	-0.008546	-0.003807	0.999956	
4084														-0.061908	-0.046961	9.807650	-0.455613	-0.890148	-0.007275	0.890137	-0.455655	0.005897	-0.008564	-0.003789	0.999956	
4085														-0.072490	-0.029493	9.792790	-0.455590	-0.890160	-0.007265	0.890148	-0.455633	0.005885	-0.008549	-0.003786	0.999956	
4086														-0.075473	-0.043256	9.807867	-0.455531	-0.890190	-0.007243	0.890179	-0.455573	0.005901	-0.008553	-0.003759	0.999956	
4087														-0.071809	-0.029392	9.792795	-0.455491	-0.890211	-0.007236	0.890199	-0.455533	0.005889	-0.008539	-0.003759	0.999956	
4088														-0.060883	-0.047331	9.793018	-0.455442	-0.890236	-0.007239	0.890224	-0.455484	0.005880	-0.008532	-0.003767	0.999957	
4089														-0.066899	-0.014690	9.821645	-0.455360	-0.890278	-0.007243	0.890266	-0.455402	0.005891	-0.008543	-0.003765	0.999956	
4090														-0.084719	-0.025765	9.807656	-0.455333	-0.890292	-0.007253	0.890281	-0.455375	0.005867	-0.008526	-0.003786	0.999956	
4091														-0.070251	-0.029398	9.807443	-0.455296	-0.890311	-0.007224	0.890299	-0.455337	0.005895	-0.008537	-0.003747	0.999957	
4092														-0.070062	-0.029274	9.807445	-0.455260	-0.890329	-0.007216	0.890317	-0.455302	0.005901	-0.008539	-0.003738	0.999957	
4093														-0.070579	-0.030036	9.778165	-0.455216	-0.890352	-0.007219	0.890340	-0.455257	0.005931	-0.008567	-0.003727	0.999956	
4094														-0.083700	-0.025325	9.822303	-0.455171	-0.890375	-0.007217	0.890363	-0.455213	0.005942	-0.008576	-0.003722	0.999956	
4095														-0.067910	-0.027545	9.880650	-0.455095	-0.890414	-0.007210	0.890402	-0.455137	0.005931	-0.008562	-0.003721	0.999956	
4096														-0.070170	-0.030483	9.763529	-0.455067	-0.890428	-0.007196	0.890416	-0.455109	0.005955	-0.008578	-0.003697	0.999956	
4097														-0.055170	-0.033358	9.792594	-0.455026	-0.890449	-0.007199	0.890437	-0.455068	0.005964	-0.008587	-0.003697	0.999956	
4098														-0.086948	-0.040328	9.793466	-0.454960	-0.890483	-0.007200	0.890471	-0.455002	0.005969	-0.008591	-0.003695	0.999956	
4099														-0.100924	-0.036851	9.793685	-0.454905	-0.890511	-0.007215	0.890498	-0.454947	0.005969	-0.008597	-0.003709	0.999956	
4100														-0.067767	-0.029071	9.836736	-0.454862	-0.890532	-0.007232	0.890520	-0.454904	0.005963	-0.008600	-0.003728	0.999956	
4101														-0.039769	-0.037261	9.807019	-0.454851	-0.890538	-0.007239	0.890526	-0.454893	0.005953	-0.008594	-0.003738	0.999956	
4102														-0.082076	-0.026482	9.807677	-0.454818	-0.890555	-0.007236	0.890543	-0.454861	0.005958	-0.008598	-0.003734	0.999956	
4103														-0.064839	-0.006821	9.616263	-0.454798	-0.890564	-0.007313	0.890552	-0.454841	0.005985	-0.008657	-0.003790	0.999955	
4104														-0.040437	-0.049182	9.953849	-0.454747	-0.890589	-0.007472	0.890578	-0.454792	0.006016	-0.008756	-0.003919	0.999954	
4105														-0.142925	-0.048152	10.131934	-0.454679	-0.890625	-0.007358	0.890613	-0.454722	0.005969	-0.008662	-0.003839	0.999955	
4106														-0.078150	0.006604	9.469649	-0.454653	-0.890639	-0.007322	0.890627	-0.454696	0.005987	-0.008662	-0.003799	0.999955	
4107														0.017193	-0.053753	9.776854	-0.454592	-0.890669	-0.007387	0.890657	-0.454635	0.006006	-0.008707	-0.003849	0.999955	
4108														-0.039263	-0.049429	9.953852	-0.454541	-0.890695	-0.007380	0.890683	-0.454585	0.006019	-0.008715	-0.003837	0.999955	
4109														-0.168509	-0.008538	9.721160	-0.454511	-0.890711	-0.007394	0.890698	-0.454555	0.006063	-0.008761	-0.003830	0.999954	
4110														-0.083124	-0.040278	9.895952	-0.454458	-0.890737	-0.007436	0.890725	-0.454502	0.006055	-0.008773	-0.003871	0.999954	
4111														0.050155	-0.046923	9.805255	-0.454433	-0.890750	-0.007449	0.890738	-0.454478	0.006046	-0.008770	-0.003888	0.999954	
4112														-0.124841	-0.019247	9.749783	-0.454369	-0.890783	-0.007440	0.890770	-0.454413	0.006071	-0.008789	-0.003869	0.999954	
4113														-0.126896	-0.031794	9.823416	-0.454310	-0.890812	-0.007498	0.890800	-0.454355	0.006099	-0.008840	-0.003908	0.999953	
4114														-0.055639	-0.049924	9.836946	-0.454282	-0.890826	-0.007538	0.890814	-0.454327	0.006090	-0.008850	-0.003949	0.999953	
4115														-0.049509	-0.023137	9.777523	-0.454222	-0.890857	-0.007516	0.890845	-0.454267	0.006108	-0.008855	-0.003921	0.999953	
4116														-0.066700	-0.033355	9.792818	-0.454155	-0.890891	-0.007519	0.890879	-0.454200	0.006106	-0.008855	-0.003925	0.999953	
4117														-0.082629	-0.042333	9.866675	-0.454118	-0.890910	-0.007533	0.890898	-0.454163	0.006106	-0.008861	-0.003938	0.999953	
4118														-0.052156	-0.037403	9.792596	-0.454062	-0.890938	-0.007558	0.890926	-0.454107	0.006127	-0.008891	-0.003951	0.999953	
4119														-0.084143	-0.044510	9.793472	-0.454004	-0.890968	-0.007565	0.890955	-0.454050	0.006156	-0.008920	-0.003945	0.999952	
4120														-0.083105	-0.043391	9.837394	-0.453981	-0.890979	-0.007559	0.890967	-0.454027	0.006179	-0.008937	-0.003929	0.999952	
4121														-0.079980	-0.029902	9.807684	-0.453946	-0.890997	-0.007556	0.890984	-0.453992	0.006186	-0.008942	-0.003924	0.999952	
4122														-0.080206	-0.030800	9.778406	-0.453894	-0.891023	-0.007561	0.891011	-0.453940	0.006145	-0.008907	-0.003948	0.999953	
4123														-0.064975	-0.033684	9.807466	-0.453864	-0.891039	-0.007528	0.891026	-0.453910	0.006170	-0.008915	-0.003908	0.999953	
4124														-0.082677	-0.044146	9.808122	-0.453820	-0.891061	-0.007535	0.891048	-0.453866	0.006193	-0.008938	-0.003903	0.999952	
4125														-0.061518	-0.019849	9.792396	-0.453788	-0.891078	-0.007553	0.891065	-0.453834	0.006192	-0.008945	-0.003921	0.999952	
4126														-0.067410	-0.047310	9.837180	-0.453755	-0.891094	-0.007547	0.891082	-0.453801	0.006179	-0.008931	-0.003921	0.999952	
4127														-0.064479	-0.034360	9.792830	-0.453697	-0.891124	-0.007566	0.891111	-0.453743	0.006181	-0.008941	-0.003937	0.999952	
4128														-0.078202	-0.030598	9.807697	-0.453661	-0.891142	-0.007578	0.891130	-0.453707	0.006195	-0.008959	-0.003942	0.999952	
4129														-0.066379	-0.029659	9.811080	-0.453648	-0.891149	-0.007560	0.891136	-0.453694	0.006192	-0.008948	-0.003928	0.999952	
4130														-0.054557	-0.028720	9.814464	-0.453635	-0.891156	-0.007543	0.891143	-0.453681	0.006190	-0.008938	-0.003914	0.999952	
4131														-0.081268	-0.045140	9.793494	-0.453599	-0.891174	-0.007537	0.891161	-0.453645	0.006196	-0.008941	-0.003906	0.999952	
4132														-0.074314	-0.017135	9.777993	-0.453558	-0.891195	-0.007540	0.891182	-0.453604	0.006226	-0.008969	-0.003895	0.999952	
4133														-0.080767	-0.044878	9.808135	-0.453531	-0.891208	-0.007540	0.891195	-0.453577	0.006242	-0.008983	-0.003889	0.999952	
4134														-0.090200	-0.026154	9.851854	-0.453489	-0.891230	-0.007554	0.891217	-0.453535	0.006233	-0.008981	-0.003906	0.999952	
4135														-0.062240	-0.034197	9.822119	-0.453449	-0.891250	-0.007566	0.891237	-0.453495	0.006249	-0.009000	-0.003909	0.999952	
4136														-0.065826	-0.048918	9.807910	-0.453377	-0.891287	-0.007557	0.891274	-0.453423	0.006221	-0.008971	-0.003915	0.999952	
4137														-0.076604	-0.031476	9.793070	-0.453389	-0.891281	-0.007542	0.891267	-0.453435	0.006277	-0.009015	-0.003876	0.999952	
4138														-0.076242	-0.030916	9.807711	-0.453331	-0.891310	-0.007524	0.891296	-0.453377	0.006295	-0.009022	-0.003852	0.999952	
4139														-0.061476	-0.034072	9.822124	-0.453287	-0.891333	-0.007521	0.891319	-0.453333	0.006306	-0.009030	-0.003845	0.999952	
4140														-0.079625	-0.045409	9.793506	-0.453247	-0.891354	-0.007500	0.891339	-0.453293	0.006307	-0.009022	-0.003827	0.999952	
4141														-0.061254	-0.034525	9.807487	-0.453201	-0.891377	-0.007511	0.891363	-0.453247	0.006309	-0.009028	-0.003836	0.999952	
4142														-0.064239	-0.048569	9.822559	-0.453155	-0.891400	-0.007520	0.891386	-0.453201	0.006300	-0.009024	-0.003848	0.999952	
4143														-0.046911	-0.038815	9.792617	-0.453090	-0.891433	-0.007531	0.891419	-0.453136	0.006318	-0.009045	-0.003851	0.999952	
4144														-0.046676	-0.038748	9.792619	-0.453068	-0.891444	-0.007496	0.891430	-0.453114	0.006328	-0.009038	-0.003815	0.999952	
4145														-0.077591	-0.044979	9.822796	-0.453014	-0.891472	-0.007490	0.891458	-0.453060	0.006315	-0.009023	-0.003816	0.999952	
4146														-0.074041	-0.031297	9.807727	-0.452995	-0.891481	-0.007510	0.891467	-0.453041	0.006316	-0.009033	-0.003834	0.999952	
4147														-0.102182	-0.024253	9.808194	-0.452931	-0.891514	-0.007493	0.891500	-0.452977	0.006320	-0.009029	-0.003818	0.999952	
4148														-0.059904	-0.035743	9.778217	-0.452923	-0.891518	-0.007499	0.891504	-0.452969	0.006310	-0.009022	-0.003827	0.999952	
4149														-0.073509	-0.031912	9.793092	-0.452852	-0.891554	-0.007497	0.891540	-0.452898	0.006317	-0.009027	-0.003823	0.999952	
4150														-0.076301	-0.045527	9.822804	-0.452826	-0.891567	-0.007526	0.891553	-0.452872	0.006341	-0.009062	-0.003839	0.999952	
4151														-0.072593	-0.031512	9.822373	-0.452804	-0.891578	-0.007532	0.891564	-0.452850	0.006336	-0.009060	-0.003847	0.999952	
4152														-0.076048	-0.045847	9.822804	-0.452767	-0.891597	-0.007553	0.891583	-0.452814	0.006364	-0.009094	-0.003852	0.999951	
4153														-0.058885	-0.036008	9.792859	-0.452705	-0.891628	-0.007554	0.891614	-0.452752	0.006368	-0.009098	-0.003852	0.999951	
4154														-0.075657	-0.045978	9.822807	-0.452726	-0.891618	-0.007543	0.891604	-0.452772	0.006354	-0.009081	-0.003849	0.999951	
4155														-0.071823	-0.031765	9.822378	-0.452655	-0.891654	-0.007533	0.891639	-0.452701	0.006380	-0.009099	-0.003829	0.999951	
4156														-0.072367	-0.032518	9.793099	-0.452591	-0.891686	-0.007546	0.891672	-0.452638	0.006392	-0.009115	-0.003836	0.999951	
4157														-0.058160	-0.036199	9.792863	-0.452574	-0.891695	-0.007568	0.891680	-0.452621	0.006426	-0.009156	-0.003840	0.999951	
4158														-0.074467	-0.045432	9.852090	-0.452505	-0.891730	-0.007553	0.891715	-0.452552	0.006426	-0.009148	-0.003827	0.999951	
4159														-0.086264	-0.029657	9.778699	-0.452468	-0.891749	-0.007565	0.891734	-0.452514	0.006372	-0.009106	-0.003863	0.999951	
4160														-0.071420	-0.033119	9.793103	-0.452418	-0.891774	-0.007585	0.891759	-0.452465	0.006405	-0.009144	-0.003866	0.999951	
4161														-0.071787	-0.033436	9.778463	-0.452382	-0.891792	-0.007569	0.891777	-0.452429	0.006439	-0.009167	-0.003836	0.999951	
4162														-0.074535	-0.046845	9.808175	-0.452350	-0.891808	-0.007568	0.891793	-0.452397	0.006446	-0.009172	-0.003834	0.999951	
4163														-0.088797	-0.043646	9.793775	-0.452312	-0.891828	-0.007550	0.891813	-0.452359	0.006446	-0.009164	-0.003817	0.999951	
4164														-0.092118	-0.057894	9.794207	-0.452275	-0.891847	-0.007563	0.891832	-0.452322	0.006461	-0.009183	-0.003823	0.999951	
4165														-0.070322	-0.032760	9.807749	-0.452228	-0.891870	-0.007564	0.891855	-0.452275	0.006467	-0.009188	-0.003821	0.999950	
4166														-0.074254	-0.047681	9.778901	-0.452196	-0.891887	-0.007545	0.891871	-0.452243	0.006471	-0.009184	-0.003803	0.999951	
4167														-0.058985	-0.050517	9.807945	-0.452143	-0.891914	-0.007533	0.891898	-0.452190	0.006457	-0.009165	-0.003799	0.999951	
4168														-0.069279	-0.032876	9.807756	-0.452094	-0.891939	-0.007533	0.891923	-0.452141	0.006447	-0.009157	-0.003804	0.999951	
4169														-0.061756	-0.064847	9.808380	-0.452067	-0.891952	-0.007501	0.891937	-0.452113	0.006438	-0.009134	-0.003780	0.999951	
4170														-0.058112	-0.050957	9.793312	-0.452054	-0.891959	-0.007492	0.891944	-0.452100	0.006424	-0.009117	-0.003779	0.999951	
4171														-0.072333	-0.047825	9.778915	-0.452012	-0.891980	-0.007492	0.891965	-0.452058	0.006428	-0.009120	-0.003777	0.999951	
4172														-0.053299	-0.036181	9.822164	-0.451962	-0.892006	-0.007490	0.891991	-0.452008	0.006418	-0.009110	-0.003780	0.999951	
4173														-0.065656	-0.040930	9.815242	-0.451926	-0.892024	-0.007496	0.892009	-0.451972	0.006411	-0.009106	-0.003789	0.999951	
4174														-0.078013	-0.045680	9.808320	-0.451890	-0.892042	-0.007502	0.892027	-0.451937	0.006403	-0.009102	-0.003798	0.999951	
4175														-0.084584	-0.044106	9.808445	-0.451845	-0.892065	-0.007489	0.892050	-0.451891	0.006391	-0.009086	-0.003792	0.999952	
4176														-0.066426	-0.033234	9.807775	-0.451782	-0.892098	-0.007430	0.892082	-0.451827	0.006403	-0.009069	-0.003736	0.999952	
4177														-0.083869	-0.043803	9.808453	-0.451739	-0.892119	-0.007448	0.892104	-0.451785	0.006399	-0.009073	-0.003753	0.999952	
4178														-0.080027	-0.029751	9.808024	-0.451715	-0.892131	-0.007438	0.892116	-0.451761	0.006388	-0.009059	-0.003750	0.999952	
4179														-0.079760	-0.029851	9.808025	-0.451664	-0.892157	-0.007450	0.892142	-0.451709	0.006401	-0.009076	-0.003756	0.999952	
4180														-0.068904	-0.047685	9.808212	-0.451618	-0.892180	-0.007446	0.892165	-0.451663	0.006405	-0.009078	-0.003750	0.999952	
4181														-0.064814	-0.033155	9.822422	-0.451570	-0.892204	-0.007444	0.892189	-0.451616	0.006416	-0.009086	-0.003744	0.999952	
4182														-0.068502	-0.047707	9.808215	-0.451536	-0.892222	-0.007437	0.892206	-0.451582	0.006437	-0.009102	-0.003729	0.999952	
4183														-0.065447	-0.034250	9.778505	-0.451544	-0.892218	-0.007438	0.892202	-0.451590	0.006427	-0.009093	-0.003734	0.999952	
4184														-0.072914	-0.035863	9.789718	-0.451527	-0.892227	-0.007436	0.892211	-0.451573	0.006416	-0.009083	-0.003737	0.999952	
4185														-0.080381	-0.037476	9.800931	-0.451509	-0.892236	-0.007434	0.892220	-0.451555	0.006406	-0.009072	-0.003740	0.999952	
4186														-0.066931	-0.047813	9.822861	-0.451409	-0.892286	-0.007449	0.892271	-0.451454	0.006406	-0.009079	-0.003755	0.999952	
4187														-0.067241	-0.048648	9.793583	-0.451371	-0.892305	-0.007429	0.892290	-0.451417	0.006389	-0.009054	-0.003745	0.999952	
4188														-0.062948	-0.034140	9.807795	-0.451341	-0.892321	-0.007436	0.892306	-0.451386	0.006381	-0.009051	-0.003755	0.999952	
4189														-0.077184	-0.031029	9.793406	-0.451307	-0.892338	-0.007417	0.892323	-0.451352	0.006380	-0.009041	-0.003739	0.999952	
4190														-0.080175	-0.044867	9.808479	-0.451275	-0.892354	-0.007418	0.892339	-0.451321	0.006404	-0.009063	-0.003730	0.999952	
4191														-0.076544	-0.030682	9.808048	-0.451223	-0.892380	-0.007418	0.892365	-0.451269	0.006411	-0.009069	-0.003727	0.999952	
4192														-0.076818	-0.031011	9.793409	-0.451194	-0.892395	-0.007415	0.892380	-0.451239	0.006449	-0.009101	-0.003707	0.999952	
4193														-0.065932	-0.048727	9.793592	-0.451149	-0.892418	-0.007409	0.892402	-0.451195	0.006434	-0.009085	-0.003709	0.999952	
4194														-0.075874	-0.030809	9.808053	-0.451125	-0.892430	-0.007425	0.892415	-0.451171	0.006412	-0.009072	-0.003733	0.999952	
4195														-0.072689	-0.017424	9.778345	-0.451082	-0.892452	-0.007408	0.892437	-0.451127	0.006409	-0.009061	-0.003720	0.999952	
4196														-0.061299	-0.034851	9.793166	-0.451031	-0.892478	-0.007414	0.892462	-0.451076	0.006402	-0.009058	-0.003730	0.999952	
4197														-0.060589	-0.034710	9.807807	-0.450993	-0.892497	-0.007424	0.892482	-0.451039	0.006381	-0.009044	-0.003747	0.999952	
4198														-0.074507	-0.031462	9.808062	-0.450945	-0.892521	-0.007440	0.892506	-0.450991	0.006385	-0.009054	-0.003761	0.999952	
4199														-0.088320	-0.027668	9.822955	-0.450908	-0.892539	-0.007440	0.892524	-0.450954	0.006426	-0.009091	-0.003743	0.999952	
4200														-0.045785	-0.038596	9.807556	-0.450839	-0.892574	-0.007436	0.892559	-0.450884	0.006398	-0.009064	-0.003753	0.999952	
4201														-0.091674	-0.042392	9.808750	-0.450819	-0.892585	-0.007439	0.892569	-0.450865	0.006425	-0.009089	-0.003744	0.999952	
4202														-0.056457	-0.021248	9.792741	-0.450767	-0.892611	-0.007420	0.892595	-0.450813	0.006440	-0.009094	-0.003720	0.999952	
4203														-0.077130	-0.045702	9.808499	-0.450708	-0.892641	-0.007411	0.892625	-0.450754	0.006462	-0.009109	-0.003703	0.999952	
4204														-0.077420	-0.046136	9.793860	-0.450673	-0.892658	-0.007437	0.892642	-0.450719	0.006482	-0.009138	-0.003718	0.999951	
4205														-0.073424	-0.031750	9.808069	-0.450633	-0.892678	-0.007438	0.892662	-0.450679	0.006475	-0.009132	-0.003722	0.999951	
4206														-0.062135	-0.049258	9.822885	-0.450608	-0.892691	-0.007453	0.892675	-0.450654	0.006486	-0.009149	-0.003730	0.999951	
4207														-0.055844	-0.022107	9.778106	-0.450583	-0.892704	-0.007457	0.892688	-0.450629	0.006443	-0.009112	-0.003753	0.999951	
4208														-0.071765	-0.031405	9.837355	-0.450548	-0.892721	-0.007429	0.892706	-0.450594	0.006471	-0.009124	-0.003716	0.999951	
4209														-0.090252	-0.043193	9.794125	-0.450522	-0.892734	-0.007441	0.892719	-0.450568	0.006448	-0.009109	-0.003738	0.999952	
4210														-0.086189	-0.028657	9.808336	-0.450483	-0.892754	-0.007425	0.892738	-0.450529	0.006482	-0.009132	-0.003708	0.999951	
4211														-0.054419	-0.021663	9.792752	-0.450432	-0.892780	-0.007410	0.892764	-0.450478	0.006482	-0.009125	-0.003696	0.999952	
4212														-0.057094	-0.035383	9.807826	-0.450405	-0.892794	-0.007368	0.892778	-0.450451	0.006467	-0.009093	-0.003665	0.999952	
4213														-0.084849	-0.027984	9.822985	-0.450396	-0.892798	-0.007379	0.892782	-0.450442	0.006478	-0.009108	-0.003670	0.999952	
4214														-0.071022	-0.032346	9.793449	-0.450366	-0.892813	-0.007373	0.892798	-0.450412	0.006454	-0.009083	-0.003676	0.999952	
4215														-0.074088	-0.046736	9.793883	-0.450343	-0.892825	-0.007380	0.892810	-0.450388	0.006444	-0.009077	-0.003687	0.999952	
4216														-0.084880	-0.029648	9.779073	-0.450281	-0.892856	-0.007404	0.892841	-0.450327	0.006427	-0.009072	-0.003717	0.999952	
4217														-0.073064	-0.046865	9.808525	-0.450259	-0.892867	-0.007392	0.892852	-0.450304	0.006414	-0.009055	-0.003712	0.999952	
4218														-0.083943	-0.029551	9.793717	-0.450208	-0.892893	-0.007398	0.892877	-0.450254	0.006440	-0.009082	-0.003706	0.999952	
4219														-0.058914	-0.050820	9.793626	-0.450217	-0.892888	-0.007409	0.892873	-0.450263	0.006451	-0.009096	-0.003711	0.999952	
4220														-0.073348	-0.047877	9.779247	-0.450184	-0.892905	-0.007428	0.892889	-0.450230	0.006450	-0.009104	-0.003728	0.999952	
4221														-0.055124	-0.036870	9.793195	-0.450134	-0.892930	-0.007421	0.892915	-0.450179	0.006470	-0.009118	-0.003714	0.999952	
4222														-0.086840	-0.044273	9.794151	-0.450097	-0.892949	-0.007445	0.892933	-0.450143	0.006456	-0.009117	-0.003742	0.999951	
4223														-0.072449	-0.047844	9.793890	-0.450054	-0.892971	-0.007427	0.892955	-0.450100	0.006486	-0.009135	-0.003713	0.999951	
4224														-0.068096	-0.032996	9.822739	-0.450024	-0.892986	-0.007454	0.892970	-0.450070	0.006472	-0.009135	-0.003744	0.999951	
4225														-0.086343	-0.044543	9.794154	-0.449947	-0.893024	-0.007439	0.893008	-0.449993	0.006507	-0.009158	-0.003715	0.999951	
4226														-0.057755	-0.051426	9.793629	-0.449932	-0.893032	-0.007440	0.893016	-0.449978	0.006509	-0.009161	-0.003715	0.999951	
4227														-0.054063	-0.037240	9.793200	-0.449892	-0.893052	-0.007437	0.893036	-0.449938	0.006517	-0.009166	-0.003709	0.999951	
4228														-0.067306	-0.033150	9.822744	-0.449856	-0.893070	-0.007440	0.893054	-0.449902	0.006509	-0.009161	-0.003716	0.999951	
4229														-0.053122	-0.037138	9.807842	-0.449827	-0.893085	-0.007442	0.893069	-0.449873	0.006499	-0.009153	-0.003723	0.999951	
4230														-0.067347	-0.034237	9.793468	-0.449774	-0.893111	-0.007452	0.893095	-0.449821	0.006477	-0.009137	-0.003742	0.999951	
4231														-0.084514	-0.044725	9.808804	-0.449726	-0.893136	-0.007451	0.893120	-0.449772	0.006517	-0.009172	-0.003724	0.999951	
4232														-0.049616	-0.023861	9.778135	-0.449715	-0.893141	-0.007428	0.893125	-0.449761	0.006495	-0.009142	-0.003713	0.999951	
4233														-0.066574	-0.034372	9.793473	-0.449668	-0.893165	-0.007444	0.893149	-0.449714	0.006492	-0.009146	-0.003729	0.999951	
4234														-0.066121	-0.034256	9.808112	-0.449632	-0.893182	-0.007468	0.893167	-0.449679	0.006510	-0.009173	-0.003743	0.999951	
4235														-0.080187	-0.030874	9.808380	-0.449591	-0.893203	-0.007448	0.893187	-0.449637	0.006510	-0.009164	-0.003726	0.999951	
4236														-0.051506	-0.037848	9.807848	-0.449549	-0.893225	-0.007458	0.893209	-0.449595	0.006524	-0.009180	-0.003729	0.999951	
4237														-0.079804	-0.031000	9.808382	-0.449528	-0.893235	-0.007454	0.893219	-0.449574	0.006531	-0.009185	-0.003722	0.999951	
4238														-0.065412	-0.034550	9.808116	-0.449490	-0.893254	-0.007467	0.893238	-0.449537	0.006546	-0.009204	-0.003728	0.999951	
4239														-0.079478	-0.031174	9.808385	-0.449455	-0.893272	-0.007464	0.893255	-0.449502	0.006546	-0.009203	-0.003725	0.999951	
4240														-0.093694	-0.028185	9.794016	-0.449400	-0.893299	-0.007467	0.893283	-0.449446	0.006518	-0.009178	-0.003741	0.999951	
4241														-0.068063	-0.049190	9.808550	-0.449386	-0.893306	-0.007497	0.893290	-0.449432	0.006534	-0.009206	-0.003761	0.999951	
4242														-0.064975	-0.035432	9.793480	-0.449367	-0.893316	-0.007502	0.893299	-0.449414	0.006561	-0.009232	-0.003753	0.999950	
4243														-0.067540	-0.049037	9.823189	-0.449357	-0.893321	-0.007507	0.893304	-0.449404	0.006552	-0.009226	-0.003762	0.999950	
4244														-0.063458	-0.034551	9.837401	-0.449370	-0.893316	-0.007299	0.893299	-0.449415	0.006584	-0.009162	-0.003562	0.999952	
4245														-0.077830	-0.031490	9.823032	-0.449335	-0.893333	-0.007296	0.893316	-0.449380	0.006589	-0.009165	-0.003557	0.999952	
4246														-0.064771	-0.036355	9.764206	-0.449296	-0.893353	-0.007278	0.893336	-0.449341	0.006589	-0.009156	-0.003541	0.999952	
4247														-0.077585	-0.031892	9.808397	-0.449265	-0.893369	-0.007285	0.893351	-0.449310	0.006582	-0.009153	-0.003551	0.999952	
4248														-0.067210	-0.050443	9.779279	-0.449216	-0.893394	-0.007291	0.893376	-0.449261	0.006574	-0.009149	-0.003560	0.999952	
4249														-0.090754	-0.028251	9.823314	-0.449215	-0.893394	-0.007259	0.893377	-0.449259	0.006567	-0.009128	-0.003535	0.999952	
4250														-0.062053	-0.035087	9.822772	-0.449161	-0.893421	-0.007263	0.893404	-0.449206	0.006593	-0.009153	-0.003527	0.999952	
4251														-0.094104	-0.042815	9.809108	-0.449123	-0.893441	-0.007253	0.893423	-0.449168	0.006580	-0.009136	-0.003525	0.999952	
4252														-0.090702	-0.028991	9.794042	-0.449092	-0.893456	-0.007250	0.893439	-0.449137	0.006583	-0.009138	-0.003521	0.999952	
4253														-0.061278	-0.035222	9.822776	-0.449064	-0.893470	-0.007251	0.893453	-0.449108	0.006584	-0.009139	-0.003521	0.999952	
4254														-0.061052	-0.035264	9.822778	-0.449019	-0.893493	-0.007250	0.893475	-0.449064	0.006589	-0.009142	-0.003519	0.999952	
4255														-0.075491	-0.032259	9.808413	-0.449004	-0.893500	-0.007262	0.893483	-0.449049	0.006602	-0.009160	-0.003525	0.999952	
4256														-0.093305	-0.043445	9.794478	-0.448947	-0.893529	-0.007246	0.893511	-0.448992	0.006597	-0.009148	-0.003513	0.999952	
4257														-0.060737	-0.035635	9.808142	-0.448934	-0.893536	-0.007224	0.893518	-0.448979	0.006610	-0.009149	-0.003488	0.999952	
4258														-0.071307	-0.017892	9.807988	-0.448906	-0.893550	-0.007223	0.893532	-0.448951	0.006615	-0.009153	-0.003485	0.999952	
4259														-0.063308	-0.049654	9.823215	-0.448842	-0.893582	-0.007248	0.893564	-0.448887	0.006598	-0.009150	-0.003515	0.999952	
4260														-0.063046	-0.049864	9.823215	-0.448794	-0.893606	-0.007246	0.893588	-0.448839	0.006603	-0.009153	-0.003512	0.999952	
4261														-0.088235	-0.029149	9.808699	-0.448762	-0.893622	-0.007246	0.893605	-0.448807	0.006610	-0.009159	-0.003509	0.999952	
4262														-0.076786	-0.046569	9.823494	-0.448730	-0.893638	-0.007248	0.893621	-0.448774	0.006595	-0.009147	-0.003517	0.999952	
4263														-0.076816	-0.046868	9.808857	-0.448730	-0.893638	-0.007210	0.893621	-0.448774	0.006602	-0.009136	-0.003481	0.999952	
4264														-0.069363	-0.017975	9.822638	-0.448695	-0.893656	-0.007224	0.893638	-0.448739	0.006616	-0.009154	-0.003487	0.999952	
4265														-0.074001	-0.033725	9.764512	-0.448646	-0.893680	-0.007215	0.893663	-0.448691	0.006600	-0.009136	-0.003486	0.999952	
4266														-0.061281	-0.050152	9.823225	-0.448616	-0.893695	-0.007225	0.893678	-0.448661	0.006577	-0.009120	-0.003506	0.999952	
4267														-0.073256	-0.033949	9.764517	-0.448586	-0.893711	-0.007204	0.893693	-0.448630	0.006590	-0.009121	-0.003482	0.999952	
4268														-0.075282	-0.047119	9.808868	-0.448570	-0.893719	-0.007208	0.893701	-0.448614	0.006583	-0.009117	-0.003489	0.999952	
4269														-0.071328	-0.032613	9.823078	-0.448550	-0.893729	-0.007215	0.893711	-0.448594	0.006606	-0.009140	-0.003485	0.999952	
4270														-0.075062	-0.047276	9.808869	-0.448529	-0.893739	-0.007226	0.893721	-0.448573	0.006619	-0.009157	-0.003489	0.999952	
4271														-0.068390	-0.019297	9.793370	-0.448490	-0.893758	-0.007229	0.893741	-0.448535	0.006611	-0.009151	-0.003496	0.999952	
4272														-0.088388	-0.043698	9.823792	-0.448410	-0.893799	-0.007215	0.893781	-0.448454	0.006613	-0.009147	-0.003483	0.999952	
4273														-0.057602	-0.037725	9.764246	-0.448447	-0.893781	-0.007208	0.893763	-0.448491	0.006597	-0.009129	-0.003484	0.999952	
4274														-0.069996	-0.032730	9.823087	-0.448373	-0.893818	-0.007162	0.893800	-0.448417	0.006615	-0.009124	-0.003435	0.999952	
4275														-0.055834	-0.036397	9.808169	-0.448356	-0.893826	-0.007167	0.893809	-0.448400	0.006604	-0.009116	-0.003445	0.999953	
4276														-0.073498	-0.047786	9.794244	-0.448312	-0.893848	-0.007178	0.893831	-0.448356	0.006580	-0.009100	-0.003466	0.999953	
4277														-0.072582	-0.047168	9.823523	-0.448281	-0.893864	-0.007177	0.893846	-0.448325	0.006619	-0.009135	-0.003448	0.999952	
4278														-0.069160	-0.032944	9.823092	-0.448264	-0.893873	-0.007190	0.893855	-0.448308	0.006628	-0.009148	-0.003455	0.999952	
4279														-0.069268	-0.033394	9.808455	-0.448240	-0.893884	-0.007180	0.893867	-0.448284	0.006615	-0.009132	-0.003453	0.999952	
4280														-0.069271	-0.033858	9.793818	-0.448180	-0.893915	-0.007183	0.893897	-0.448224	0.006607	-0.009126	-0.003459	0.999952	
4281														-0.055136	-0.037726	9.778896	-0.448162	-0.893923	-0.007183	0.893906	-0.448206	0.006611	-0.009129	-0.003458	0.999952	
4282														-0.065116	-0.019497	9.808028	-0.448125	-0.893942	-0.007207	0.893924	-0.448169	0.006629	-0.009156	-0.003472	0.999952	
4283														-0.082541	-0.030365	9.808745	-0.448096	-0.893956	-0.007179	0.893939	-0.448141	0.006621	-0.009136	-0.003450	0.999952	
4284														-0.086254	-0.045272	9.779900	-0.448063	-0.893973	-0.007166	0.893956	-0.448107	0.006605	-0.009116	-0.003447	0.999953	
4285														-0.067586	-0.033836	9.808465	-0.448030	-0.893990	-0.007178	0.893972	-0.448075	0.006616	-0.009131	-0.003453	0.999952	
4286														-0.081182	-0.030173	9.823392	-0.448002	-0.894004	-0.007169	0.893986	-0.448046	0.006601	-0.009113	-0.003452	0.999953	
4287														-0.052850	-0.037385	9.808181	-0.447955	-0.894028	-0.007173	0.894010	-0.447999	0.006625	-0.009136	-0.003446	0.999952	
4288														-0.066917	-0.033959	9.808469	-0.447936	-0.894037	-0.007161	0.894019	-0.447981	0.006622	-0.009128	-0.003435	0.999952	
4289														-0.070515	-0.048537	9.794262	-0.447888	-0.894061	-0.007164	0.894043	-0.447932	0.006646	-0.009151	-0.003428	0.999952	
4290														-0.070006	-0.048108	9.808902	-0.447880	-0.894065	-0.007140	0.894047	-0.447924	0.006657	-0.009150	-0.003402	0.999952	
4291														-0.080159	-0.030268	9.823400	-0.447821	-0.894094	-0.007173	0.894076	-0.447865	0.006625	-0.009136	-0.003446	0.999952	
4292														-0.066735	-0.034891	9.779196	-0.447768	-0.894121	-0.007150	0.894103	-0.447812	0.006638	-0.009137	-0.003420	0.999952	
4293														-0.069845	-0.049130	9.779629	-0.447725	-0.894142	-0.007153	0.894124	-0.447769	0.006630	-0.009132	-0.003427	0.999952	
4294														-0.062091	-0.020084	9.808047	-0.447684	-0.894163	-0.007164	0.894145	-0.447728	0.006640	-0.009145	-0.003434	0.999952	
4295														-0.054043	-0.051873	9.823258	-0.447639	-0.894185	-0.007188	0.894167	-0.447684	0.006622	-0.009139	-0.003463	0.999952	
4296														-0.083097	-0.046033	9.794559	-0.447620	-0.894195	-0.007199	0.894177	-0.447664	0.006631	-0.009152	-0.003469	0.999952	
4297														-0.065183	-0.035179	9.793841	-0.447586	-0.894212	-0.007169	0.894194	-0.447630	0.006623	-0.009132	-0.003446	0.999952	
4298														-0.064961	-0.035218	9.793842	-0.447561	-0.894224	-0.007195	0.894206	-0.447606	0.006640	-0.009158	-0.003462	0.999952	
4299														-0.075487	-0.017291	9.808341	-0.447515	-0.894248	-0.007194	0.894229	-0.447559	0.006678	-0.009192	-0.003444	0.999952	
4300														-0.082566	-0.046104	9.794563	-0.447497	-0.894257	-0.007192	0.894238	-0.447542	0.006684	-0.009196	-0.003440	0.999952	
4301														-0.081474	-0.045454	9.823844	-0.447440	-0.894285	-0.007181	0.894267	-0.447485	0.006669	-0.009177	-0.003438	0.999952	
4302														-0.092394	-0.028224	9.809068	-0.447400	-0.894305	-0.007180	0.894287	-0.447445	0.006675	-0.009182	-0.003434	0.999952	
4303														-0.067229	-0.049666	9.794279	-0.447369	-0.894321	-0.007163	0.894303	-0.447414	0.006639	-0.009142	-0.003436	0.999952	
4304														-0.059817	-0.020921	9.808059	-0.447316	-0.894347	-0.007181	0.894329	-0.447361	0.006671	-0.009179	-0.003438	0.999952	
4305														-0.063509	-0.035488	9.793851	-0.447296	-0.894357	-0.007157	0.894339	-0.447341	0.006683	-0.009179	-0.003411	0.999952	
4306														-0.063276	-0.035421	9.793853	-0.447266	-0.894372	-0.007155	0.894354	-0.447310	0.006688	-0.009182	-0.003408	0.999952	
4307														-0.066321	-0.049724	9.794285	-0.447206	-0.894403	-0.007144	0.894384	-0.447250	0.006670	-0.009161	-0.003407	0.999952	
4308														-0.062618	-0.035530	9.793856	-0.447187	-0.894412	-0.007140	0.894393	-0.447231	0.006675	-0.009163	-0.003401	0.999952	
4309														-0.090944	-0.028745	9.794445	-0.447160	-0.894425	-0.007132	0.894407	-0.447204	0.006693	-0.009176	-0.003386	0.999952	
4310														-0.061930	-0.035080	9.808498	-0.447136	-0.894438	-0.007126	0.894419	-0.447180	0.006711	-0.009189	-0.003373	0.999952	
4311														-0.079430	-0.045980	9.809224	-0.447071	-0.894470	-0.007138	0.894451	-0.447116	0.006721	-0.009204	-0.003380	0.999952	
4312														-0.072466	-0.017526	9.808363	-0.447049	-0.894481	-0.007123	0.894462	-0.447093	0.006719	-0.009194	-0.003368	0.999952	
4313														-0.050899	-0.053007	9.793999	-0.447019	-0.894496	-0.007108	0.894477	-0.447063	0.006751	-0.009216	-0.003341	0.999952	
4314														-0.075039	-0.031341	9.823437	-0.447002	-0.894505	-0.007119	0.894486	-0.447046	0.006725	-0.009199	-0.003362	0.999952	
4315														-0.078016	-0.045599	9.823871	-0.446952	-0.894530	-0.007083	0.894511	-0.446996	0.006730	-0.009186	-0.003327	0.999952	
4316														-0.078106	-0.045844	9.809235	-0.446913	-0.894550	-0.007082	0.894530	-0.446956	0.006734	-0.009189	-0.003325	0.999952	
4317														-0.077835	-0.045946	9.809237	-0.446877	-0.894567	-0.007082	0.894548	-0.446921	0.006723	-0.009180	-0.003331	0.999952	
4318														-0.056589	-0.020916	9.808078	-0.446831	-0.894590	-0.007081	0.894571	-0.446875	0.006727	-0.009182	-0.003328	0.999952	
4319														-0.062934	-0.049532	9.808943	-0.446781	-0.894615	-0.007078	0.894597	-0.446825	0.006698	-0.009154	-0.003339	0.999953	
4320														-0.063005	-0.050042	9.794305	-0.446747	-0.894632	-0.007090	0.894613	-0.446791	0.006710	-0.009171	-0.003346	0.999952	
4321														-0.069872	-0.017813	9.808382	-0.446720	-0.894646	-0.007059	0.894627	-0.446763	0.006700	-0.009148	-0.003322	0.999953	
4322														-0.072918	-0.032218	9.808815	-0.446733	-0.894639	-0.007097	0.894620	-0.446777	0.006689	-0.009154	-0.003361	0.999952	
4323														-0.079480	-0.060913	9.809678	-0.446693	-0.894659	-0.007088	0.894641	-0.446736	0.006705	-0.009165	-0.003346	0.999952	
4324														-0.090164	-0.043446	9.809547	-0.446650	-0.894680	-0.007112	0.894662	-0.446694	0.006687	-0.009159	-0.003376	0.999952	
4325														-0.072358	-0.032808	9.808817	-0.446647	-0.894682	-0.007123	0.894663	-0.446691	0.006696	-0.009173	-0.003382	0.999952	
4326														-0.057942	-0.036254	9.808518	-0.446629	-0.894691	-0.007122	0.894672	-0.446673	0.006699	-0.009175	-0.003380	0.999952	
4327														-0.071958	-0.032834	9.808820	-0.446555	-0.894728	-0.007100	0.894709	-0.446599	0.006709	-0.009173	-0.003357	0.999952	
4328														-0.076220	-0.035613	9.809004	-0.446551	-0.894730	-0.007115	0.894711	-0.446595	0.006712	-0.009183	-0.003369	0.999952	
4329														-0.080482	-0.038392	9.809188	-0.446547	-0.894732	-0.007130	0.894713	-0.446591	0.006716	-0.009193	-0.003380	0.999952	
4330														-0.071303	-0.033061	9.808824	-0.446526	-0.894742	-0.007098	0.894723	-0.446570	0.006702	-0.009167	-0.003358	0.999952	
4331														-0.057064	-0.036880	9.793885	-0.446476	-0.894767	-0.007121	0.894749	-0.446520	0.006685	-0.009161	-0.003387	0.999952	
4332														-0.070682	-0.033485	9.808827	-0.446435	-0.894787	-0.007138	0.894769	-0.446480	0.006683	-0.009167	-0.003404	0.999952	
4333														-0.073745	-0.047734	9.809260	-0.446395	-0.894808	-0.007102	0.894789	-0.446439	0.006690	-0.009156	-0.003368	0.999952	
4334														-0.069262	-0.032621	9.838110	-0.446363	-0.894824	-0.007087	0.894805	-0.446406	0.006688	-0.009149	-0.003356	0.999953	
4335														-0.069376	-0.032962	9.823473	-0.446335	-0.894838	-0.007086	0.894819	-0.446379	0.006696	-0.009155	-0.003352	0.999952	
4336														-0.066268	-0.019141	9.808404	-0.446292	-0.894859	-0.007095	0.894840	-0.446336	0.006707	-0.009168	-0.003355	0.999952	
4337														-0.072283	-0.047404	9.823906	-0.446249	-0.894881	-0.007086	0.894862	-0.446293	0.006690	-0.009149	-0.003356	0.999953	
4338														-0.072860	-0.048251	9.794629	-0.446227	-0.894892	-0.007110	0.894873	-0.446270	0.006706	-0.009174	-0.003371	0.999952	
4339														-0.071964	-0.047685	9.823907	-0.446197	-0.894906	-0.007108	0.894888	-0.446241	0.006710	-0.009176	-0.003367	0.999952	
4340														-0.083501	-0.030763	9.794505	-0.446178	-0.894916	-0.007101	0.894897	-0.446222	0.006727	-0.009189	-0.003354	0.999952	
4341														-0.068718	-0.033682	9.808840	-0.446149	-0.894931	-0.007092	0.894912	-0.446193	0.006744	-0.009200	-0.003338	0.999952	
4342														-0.068937	-0.034015	9.794203	-0.446094	-0.894958	-0.007088	0.894939	-0.446138	0.006748	-0.009202	-0.003333	0.999952	
4343														-0.082530	-0.030424	9.809149	-0.446046	-0.894982	-0.007092	0.894963	-0.446090	0.006741	-0.009197	-0.003340	0.999952	
4344														-0.068165	-0.033900	9.808843	-0.445993	-0.895008	-0.007111	0.894989	-0.446037	0.006772	-0.009233	-0.003344	0.999952	
4345														-0.082340	-0.030427	9.809151	-0.445970	-0.895020	-0.007071	0.895000	-0.446014	0.006791	-0.009232	-0.003300	0.999952	
4346														-0.071056	-0.047869	9.809279	-0.445928	-0.895041	-0.007062	0.895021	-0.445972	0.006774	-0.009213	-0.003300	0.999952	
4347														-0.085195	-0.044564	9.809586	-0.445882	-0.895064	-0.007075	0.895044	-0.445926	0.006818	-0.009258	-0.003292	0.999952	
4348														-0.053395	-0.037039	9.808541	-0.445883	-0.895063	-0.007088	0.895043	-0.445927	0.006828	-0.009272	-0.003300	0.999952	
4349														-0.085194	-0.044808	9.809585	-0.445841	-0.895084	-0.007115	0.895064	-0.445885	0.006844	-0.009299	-0.003317	0.999951	
4350														-0.067489	-0.033915	9.808848	-0.445802	-0.895104	-0.007092	0.895083	-0.445846	0.006854	-0.009297	-0.003292	0.999951	
4351														-0.069897	-0.047507	9.838558	-0.445762	-0.895123	-0.007116	0.895103	-0.445806	0.006869	-0.009321	-0.003308	0.999951	
4352														-0.077646	-0.016100	9.823366	-0.445788	-0.895110	-0.007093	0.895090	-0.445833	0.006847	-0.009291	-0.003296	0.999951	
4353														-0.094868	-0.027246	9.824108	-0.445732	-0.895138	-0.007130	0.895118	-0.445777	0.006834	-0.009296	-0.003336	0.999951	
4354														-0.069567	-0.048410	9.823921	-0.445689	-0.895159	-0.007136	0.895139	-0.445734	0.006857	-0.009319	-0.003331	0.999951	
4355														-0.098720	-0.042545	9.795262	-0.445640	-0.895184	-0.007140	0.895164	-0.445684	0.006848	-0.009312	-0.003340	0.999951	
4356														-0.076699	-0.016706	9.823372	-0.445609	-0.895199	-0.007124	0.895179	-0.445654	0.006845	-0.009303	-0.003327	0.999951	
4357														-0.065857	-0.034532	9.808857	-0.445569	-0.895219	-0.007100	0.895199	-0.445613	0.006855	-0.009300	-0.003302	0.999951	
4358														-0.064810	-0.033664	9.838137	-0.445538	-0.895235	-0.007078	0.895215	-0.445582	0.006866	-0.009301	-0.003277	0.999951	
4359														-0.068733	-0.048502	9.809292	-0.445509	-0.895250	-0.007070	0.895229	-0.445553	0.006884	-0.009313	-0.003262	0.999951	
4360														-0.078957	-0.030621	9.823812	-0.445486	-0.895261	-0.007067	0.895241	-0.445530	0.006854	-0.009284	-0.003274	0.999952	
4361														-0.064696	-0.034191	9.808866	-0.445459	-0.895275	-0.007026	0.895254	-0.445502	0.006872	-0.009283	-0.003229	0.999952	
4362														-0.082438	-0.045418	9.794972	-0.445456	-0.895276	-0.007044	0.895256	-0.445499	0.006868	-0.009287	-0.003247	0.999952	
4363														-0.067184	-0.048393	9.823938	-0.445409	-0.895299	-0.007083	0.895279	-0.445453	0.006857	-0.009295	-0.003287	0.999951	
4364														-0.064076	-0.034732	9.808868	-0.445447	-0.895281	-0.007016	0.895262	-0.445490	0.006639	-0.009069	-0.003324	0.999953	
4365														-0.081471	-0.045662	9.809613	-0.445427	-0.895291	-0.007008	0.895272	-0.445470	0.006658	-0.009083	-0.003308	0.999953	
4366														-0.059915	-0.020091	9.823079	-0.445399	-0.895305	-0.006999	0.895286	-0.445442	0.006641	-0.009064	-0.003308	0.999953	
4367														-0.063399	-0.034744	9.808872	-0.445385	-0.895312	-0.007004	0.895293	-0.445428	0.006663	-0.009085	-0.003303	0.999953	
4368														-0.062325	-0.034143	9.838151	-0.445360	-0.895324	-0.007002	0.895306	-0.445403	0.006632	-0.009057	-0.003315	0.999953	
4369														-0.066434	-0.049360	9.794670	-0.445298	-0.895355	-0.006961	0.895337	-0.445341	0.006650	-0.009054	-0.003271	0.999954	
4370														-0.091144	-0.028156	9.809506	-0.445288	-0.895360	-0.007006	0.895341	-0.445331	0.006659	-0.009082	-0.003308	0.999953	
4371														-0.077189	-0.032054	9.794553	-0.445239	-0.895384	-0.007004	0.895366	-0.445282	0.006663	-0.009085	-0.003305	0.999953	
4372														-0.080323	-0.046407	9.794985	-0.445226	-0.895391	-0.007017	0.895372	-0.445269	0.006674	-0.009100	-0.003312	0.999953	
4373														-0.079304	-0.045855	9.824264	-0.445186	-0.895411	-0.007022	0.895392	-0.445229	0.006662	-0.009092	-0.003321	0.999953	
4374														-0.064661	-0.049271	9.823950	-0.445173	-0.895417	-0.007012	0.895399	-0.445216	0.006646	-0.009073	-0.003320	0.999953	
4375														-0.093239	-0.043225	9.809946	-0.445144	-0.895431	-0.007036	0.895413	-0.445187	0.006628	-0.009068	-0.003350	0.999953	
4376														-0.064921	-0.050538	9.794674	-0.445104	-0.895451	-0.007069	0.895433	-0.445148	0.006630	-0.009084	-0.003379	0.999953	
4377														-0.092468	-0.043222	9.824586	-0.445062	-0.895472	-0.007026	0.895454	-0.445105	0.006649	-0.009082	-0.003332	0.999953	
4378														-0.074964	-0.032444	9.809203	-0.445061	-0.895473	-0.007017	0.895454	-0.445104	0.006632	-0.009062	-0.003332	0.999953	
4379														-0.078450	-0.047206	9.794997	-0.445014	-0.895496	-0.007043	0.895477	-0.445057	0.006648	-0.009088	-0.003348	0.999953	
4380														-0.056684	-0.021407	9.823095	-0.444977	-0.895514	-0.007042	0.895496	-0.445020	0.006653	-0.009091	-0.003345	0.999953	
4381														-0.063385	-0.050285	9.809319	-0.444953	-0.895526	-0.007027	0.895508	-0.444996	0.006650	-0.009082	-0.003334	0.999953	
4382														-0.077837	-0.047378	9.795001	-0.444908	-0.895548	-0.007038	0.895530	-0.444951	0.006659	-0.009095	-0.003340	0.999953	
4383														-0.074432	-0.033142	9.794571	-0.444874	-0.895565	-0.007031	0.895547	-0.444917	0.006675	-0.009106	-0.003327	0.999953	
4384														-0.074337	-0.033382	9.794571	-0.444843	-0.895581	-0.007083	0.895562	-0.444886	0.006670	-0.009125	-0.003376	0.999953	
4385														-0.077864	-0.048086	9.780363	-0.444819	-0.895593	-0.007042	0.895574	-0.444862	0.006688	-0.009122	-0.003332	0.999953	
4386														-0.059565	-0.036707	9.794255	-0.444796	-0.895604	-0.007054	0.895586	-0.444839	0.006664	-0.009106	-0.003354	0.999953	
4387														-0.087838	-0.030226	9.794896	-0.444766	-0.895619	-0.007045	0.895600	-0.444809	0.006681	-0.009117	-0.003338	0.999953	
4388														-0.058607	-0.036450	9.808896	-0.444742	-0.895631	-0.007036	0.895613	-0.444785	0.006663	-0.009098	-0.003338	0.999953	
4389														-0.075359	-0.047092	9.824289	-0.444700	-0.895652	-0.007022	0.895633	-0.444743	0.006660	-0.009088	-0.003327	0.999953	
4390														-0.090060	-0.044511	9.795337	-0.444653	-0.895675	-0.007012	0.895657	-0.444696	0.006642	-0.009067	-0.003326	0.999953	
4391														-0.054287	-0.022291	9.808471	-0.444644	-0.895680	-0.007024	0.895661	-0.444687	0.006652	-0.009082	-0.003333	0.999953	
4392														-0.085895	-0.030139	9.809548	-0.444602	-0.895701	-0.007029	0.895682	-0.444645	0.006641	-0.009074	-0.003343	0.999953	
4393														-0.074111	-0.047458	9.824297	-0.444597	-0.895703	-0.007019	0.895685	-0.444640	0.006624	-0.009054	-0.003342	0.999953	
4394														-0.056343	-0.036507	9.823544	-0.444554	-0.895724	-0.007024	0.895706	-0.444597	0.006647	-0.009076	-0.003337	0.999953	
4395														-0.088099	-0.044295	9.824622	-0.444535	-0.895734	-0.007037	0.895715	-0.444578	0.006656	-0.009090	-0.003345	0.999953	
4396														-0.070863	-0.033783	9.809229	-0.444513	-0.895745	-0.007050	0.895726	-0.444556	0.006665	-0.009104	-0.003352	0.999953	
4397														-0.085078	-0.030580	9.809554	-0.444483	-0.895760	-0.007056	0.895741	-0.444526	0.006689	-0.009129	-0.003347	0.999953	
4398														-0.070700	-0.033992	9.809230	-0.444456	-0.895773	-0.007074	0.895754	-0.444500	0.006685	-0.009132	-0.003365	0.999953	
4399														-0.073787	-0.048251	9.809661	-0.444395	-0.895803	-0.007046	0.895784	-0.444439	0.006709	-0.009141	-0.003331	0.999953	
4400														-0.070262	-0.033704	9.809234	-0.444384	-0.895809	-0.007010	0.895790	-0.444427	0.006713	-0.009129	-0.003296	0.999953	
4401														-0.084152	-0.030434	9.809562	-0.444351	-0.895825	-0.007022	0.895806	-0.444394	0.006690	-0.009113	-0.003318	0.999953	
4402														-0.055394	-0.037123	9.808912	-0.444347	-0.895827	-0.007028	0.895808	-0.444390	0.006713	-0.009137	-0.003313	0.999953	
4403														-0.069755	-0.034249	9.794601	-0.444306	-0.895848	-0.007011	0.895829	-0.444349	0.006675	-0.009095	-0.003315	0.999953	
4404														-0.082710	-0.030304	9.824209	-0.444274	-0.895864	-0.006995	0.895845	-0.444316	0.006672	-0.009085	-0.003302	0.999953	
4405														-0.057597	-0.051402	9.809349	-0.444222	-0.895890	-0.006986	0.895871	-0.444264	0.006689	-0.009096	-0.003287	0.999953	
4406														-0.097403	-0.027654	9.795263	-0.444199	-0.895901	-0.006984	0.895882	-0.444242	0.006692	-0.009098	-0.003285	0.999953	
4407														-0.065420	-0.019895	9.794178	-0.444181	-0.895910	-0.006977	0.895891	-0.444224	0.006708	-0.009109	-0.003271	0.999953	
4408														-0.068435	-0.033994	9.794612	-0.444207	-0.895898	-0.006939	0.895878	-0.444249	0.006712	-0.009096	-0.003235	0.999953	
4409														-0.064917	-0.019811	9.794182	-0.444189	-0.895906	-0.006978	0.895887	-0.444232	0.006700	-0.009102	-0.003276	0.999953	
4410														-0.082133	-0.030979	9.794944	-0.444173	-0.895914	-0.006948	0.895895	-0.444215	0.006689	-0.009079	-0.003254	0.999953	
4411														-0.070202	-0.048189	9.809688	-0.444157	-0.895922	-0.006945	0.895903	-0.444199	0.006656	-0.009049	-0.003266	0.999954	
4412														-0.066783	-0.034394	9.794622	-0.444117	-0.895942	-0.006929	0.895924	-0.444159	0.006621	-0.009009	-0.003267	0.999954	
4413														-0.080256	-0.030791	9.809593	-0.444096	-0.895953	-0.006921	0.895934	-0.444138	0.006637	-0.009020	-0.003254	0.999954	
4414														-0.069413	-0.048610	9.795058	-0.444064	-0.895969	-0.006905	0.895950	-0.444105	0.006634	-0.009011	-0.003241	0.999954	
4415														-0.082465	-0.044662	9.824669	-0.444034	-0.895983	-0.006896	0.895965	-0.444076	0.006617	-0.008991	-0.003240	0.999954	
4416														-0.062274	-0.020266	9.794198	-0.443987	-0.896006	-0.006929	0.895988	-0.444029	0.006620	-0.009008	-0.003269	0.999954	
4417														-0.064924	-0.034179	9.809269	-0.443961	-0.896020	-0.006887	0.896001	-0.444003	0.006638	-0.009005	-0.003224	0.999954	
4418														-0.081384	-0.044548	9.839312	-0.443930	-0.896035	-0.006924	0.896016	-0.443972	0.006626	-0.009011	-0.003263	0.999954	
4419														-0.078620	-0.031178	9.809606	-0.443920	-0.896040	-0.006902	0.896021	-0.443962	0.006603	-0.008981	-0.003253	0.999954	
4420														-0.064378	-0.034782	9.794636	-0.443892	-0.896054	-0.006900	0.896035	-0.443934	0.006607	-0.008983	-0.003250	0.999954	
4421														-0.078258	-0.031432	9.794974	-0.443849	-0.896075	-0.006857	0.896057	-0.443890	0.006589	-0.008948	-0.003219	0.999955	
4422														-0.063581	-0.034585	9.794642	-0.443824	-0.896088	-0.006855	0.896069	-0.443865	0.006592	-0.008950	-0.003217	0.999955	
4423														-0.077379	-0.031063	9.809616	-0.443795	-0.896102	-0.006874	0.896084	-0.443836	0.006622	-0.008985	-0.003221	0.999954	
4424														-0.066633	-0.048860	9.795076	-0.443788	-0.896106	-0.006838	0.896087	-0.443829	0.006626	-0.008973	-0.003187	0.999955	
4425														-0.079762	-0.044701	9.824691	-0.443756	-0.896122	-0.006817	0.896103	-0.443797	0.006635	-0.008971	-0.003164	0.999955	
4426														-0.076620	-0.030823	9.809622	-0.443729	-0.896135	-0.006828	0.896116	-0.443770	0.006611	-0.008954	-0.003186	0.999955	
4427														-0.077097	-0.031625	9.780349	-0.443729	-0.896135	-0.006812	0.896116	-0.443770	0.006609	-0.008945	-0.003172	0.999955	
4428														-0.080008	-0.045954	9.780784	-0.443699	-0.896150	-0.006816	0.896131	-0.443740	0.006598	-0.008938	-0.003180	0.999955	
4429														-0.064653	-0.048544	9.809724	-0.443647	-0.896176	-0.006808	0.896157	-0.443688	0.006616	-0.008949	-0.003166	0.999955	
4430														-0.078329	-0.044940	9.824702	-0.443598	-0.896200	-0.006806	0.896181	-0.443639	0.006619	-0.008951	-0.003163	0.999955	
4431														-0.075300	-0.031050	9.809632	-0.443574	-0.896212	-0.006806	0.896193	-0.443615	0.006622	-0.008954	-0.003162	0.999955	
4432														-0.077729	-0.045094	9.824706	-0.443543	-0.896227	-0.006803	0.896208	-0.443584	0.006592	-0.008926	-0.003173	0.999955	
4433														-0.074102	-0.030713	9.824276	-0.443511	-0.896244	-0.006760	0.896225	-0.443551	0.006610	-0.008922	-0.003127	0.999955	
4434														-0.076979	-0.044835	9.824713	-0.443522	-0.896238	-0.006751	0.896220	-0.443562	0.006590	-0.008901	-0.003127	0.999955	
4435														-0.059790	-0.034272	9.809301	-0.443456	-0.896271	-0.006785	0.896252	-0.443496	0.006627	-0.008949	-0.003142	0.999955	
4436														-0.080461	-0.059679	9.810509	-0.443453	-0.896272	-0.006769	0.896253	-0.443493	0.006623	-0.008938	-0.003130	0.999955	
4437														-0.074277	-0.031549	9.795004	-0.443419	-0.896289	-0.006796	0.896270	-0.443460	0.006637	-0.008963	-0.003147	0.999955	
4438														-0.077346	-0.046026	9.795438	-0.443382	-0.896307	-0.006798	0.896288	-0.443422	0.006627	-0.008954	-0.003155	0.999955	
4439														-0.059631	-0.035119	9.794665	-0.443359	-0.896318	-0.006810	0.896299	-0.443400	0.006636	-0.008968	-0.003162	0.999955	
4440														-0.086668	-0.027446	9.839264	-0.443324	-0.896336	-0.006753	0.896317	-0.443365	0.006648	-0.008953	-0.003106	0.999955	
4441														-0.087660	-0.028381	9.795353	-0.443278	-0.896359	-0.006773	0.896339	-0.443319	0.006644	-0.008958	-0.003126	0.999955	
4442														-0.058904	-0.035194	9.794669	-0.443258	-0.896368	-0.006813	0.896349	-0.443299	0.006632	-0.008965	-0.003167	0.999955	
4443														-0.076147	-0.046455	9.795446	-0.443241	-0.896377	-0.006797	0.896358	-0.443282	0.006627	-0.008954	-0.003155	0.999955	
4444														-0.073034	-0.032570	9.780377	-0.443222	-0.896386	-0.006802	0.896367	-0.443263	0.006616	-0.008945	-0.003165	0.999955	
4445														-0.057573	-0.035259	9.809311	-0.443179	-0.896407	-0.006807	0.896388	-0.443220	0.006604	-0.008937	-0.003175	0.999955	
4446														-0.074857	-0.046470	9.810088	-0.443133	-0.896430	-0.006819	0.896411	-0.443174	0.006614	-0.008951	-0.003182	0.999955	
4447														-0.086566	-0.029704	9.780725	-0.443069	-0.896462	-0.006803	0.896443	-0.443110	0.006610	-0.008940	-0.003170	0.999955	
4448														-0.071404	-0.032539	9.795023	-0.443043	-0.896475	-0.006780	0.896456	-0.443084	0.006588	-0.008910	-0.003159	0.999955	
4449														-0.070599	-0.032302	9.809663	-0.442999	-0.896496	-0.006799	0.896478	-0.443040	0.006583	-0.008914	-0.003179	0.999955	
4450														-0.070294	-0.032566	9.809664	-0.442980	-0.896506	-0.006811	0.896487	-0.443021	0.006558	-0.008897	-0.003201	0.999955	
4451														-0.070890	-0.033357	9.780390	-0.442955	-0.896518	-0.006803	0.896500	-0.442996	0.006575	-0.008908	-0.003187	0.999955	
4452														-0.070224	-0.032946	9.795030	-0.442928	-0.896532	-0.006788	0.896513	-0.442969	0.006571	-0.008898	-0.003174	0.999955	
4453														-0.069899	-0.032996	9.795032	-0.442921	-0.896535	-0.006792	0.896517	-0.442962	0.006561	-0.008891	-0.003184	0.999955	
4454														-0.083486	-0.029533	9.810019	-0.442889	-0.896551	-0.006790	0.896532	-0.442930	0.006564	-0.008892	-0.003180	0.999955	
4455														-0.083265	-0.029572	9.810021	-0.442889	-0.896551	-0.006788	0.896532	-0.442930	0.006566	-0.008894	-0.003178	0.999955	
4456														-0.069029	-0.033131	9.795038	-0.442893	-0.896549	-0.006766	0.896531	-0.442933	0.006542	-0.008862	-0.003168	0.999956	
4457														-0.096774	-0.026264	9.810376	-0.442843	-0.896574	-0.006744	0.896556	-0.442883	0.006552	-0.008861	-0.003144	0.999956	
4458														-0.071277	-0.047003	9.810113	-0.442820	-0.896585	-0.006770	0.896567	-0.442860	0.006568	-0.008887	-0.003161	0.999956	
4459														-0.068024	-0.032786	9.809679	-0.442820	-0.896585	-0.006760	0.896567	-0.442860	0.006586	-0.008899	-0.003145	0.999955	
4460														-0.082046	-0.029673	9.810031	-0.442798	-0.896596	-0.006772	0.896577	-0.442839	0.006561	-0.008881	-0.003166	0.999956	
4461														-0.070201	-0.046980	9.824754	-0.442771	-0.896609	-0.006769	0.896591	-0.442811	0.006563	-0.008882	-0.003163	0.999956	
4462														-0.067173	-0.033135	9.809684	-0.442743	-0.896623	-0.006773	0.896605	-0.442784	0.006552	-0.008874	-0.003172	0.999956	
4463														-0.069719	-0.047224	9.824756	-0.442719	-0.896635	-0.006786	0.896616	-0.442760	0.006562	-0.008888	-0.003179	0.999955	
4464														-0.066730	-0.033213	9.809687	-0.442708	-0.896640	-0.006749	0.896622	-0.442748	0.006566	-0.008875	-0.003145	0.999956	
4465														-0.065460	-0.032416	9.838966	-0.442710	-0.896640	-0.006741	0.896621	-0.442750	0.006548	-0.008856	-0.003145	0.999956	
4466														-0.066117	-0.033144	9.809691	-0.442700	-0.896645	-0.006746	0.896626	-0.442740	0.006571	-0.008879	-0.003139	0.999956	
4467														-0.055349	-0.051114	9.795135	-0.442654	-0.896667	-0.006765	0.896649	-0.442694	0.006567	-0.008883	-0.003159	0.999956	
4468														-0.082781	-0.044124	9.825117	-0.442626	-0.896681	-0.006751	0.896662	-0.442667	0.006564	-0.008874	-0.003148	0.999956	
4469														-0.082558	-0.044165	9.825118	-0.442603	-0.896692	-0.006763	0.896673	-0.442644	0.006573	-0.008888	-0.003155	0.999956	
4470														-0.050731	-0.036344	9.823979	-0.442582	-0.896702	-0.006772	0.896684	-0.442623	0.006597	-0.008913	-0.003152	0.999955	
4471														-0.079240	-0.029926	9.824686	-0.442526	-0.896730	-0.006764	0.896711	-0.442567	0.006613	-0.008923	-0.003139	0.999955	
4472														-0.079339	-0.030221	9.810051	-0.442520	-0.896733	-0.006742	0.896714	-0.442561	0.006589	-0.008893	-0.003130	0.999956	
4473														-0.082124	-0.044414	9.810488	-0.442476	-0.896755	-0.006720	0.896736	-0.442516	0.006599	-0.008891	-0.003106	0.999956	
4474														-0.068259	-0.047969	9.795496	-0.442469	-0.896759	-0.006754	0.896739	-0.442509	0.006635	-0.008939	-0.003120	0.999955	
4475														-0.082053	-0.044506	9.810488	-0.442438	-0.896774	-0.006738	0.896755	-0.442479	0.006632	-0.008929	-0.003108	0.999955	
4476														-0.064360	-0.033441	9.809702	-0.442429	-0.896778	-0.006751	0.896759	-0.442469	0.006642	-0.008944	-0.003115	0.999955	
4477														-0.077946	-0.030001	9.824696	-0.442428	-0.896779	-0.006742	0.896760	-0.442468	0.006625	-0.008924	-0.003115	0.999955	
4478														-0.066957	-0.047983	9.810138	-0.442389	-0.896798	-0.006758	0.896779	-0.442430	0.006621	-0.008927	-0.003132	0.999955	
4479														-0.077350	-0.030152	9.824700	-0.442345	-0.896820	-0.006722	0.896801	-0.442385	0.006624	-0.008914	-0.003099	0.999955	
4480														-0.077546	-0.030329	9.810065	-0.442337	-0.896824	-0.006715	0.896804	-0.442378	0.006641	-0.008926	-0.003084	0.999955	
4481														-0.063076	-0.033497	9.809710	-0.442269	-0.896857	-0.006713	0.896838	-0.442309	0.006644	-0.008928	-0.003082	0.999955	
4482														-0.062851	-0.033541	9.809711	-0.442250	-0.896867	-0.006712	0.896847	-0.442291	0.006646	-0.008929	-0.003080	0.999955	
4483														-0.080047	-0.044752	9.810504	-0.442234	-0.896875	-0.006717	0.896856	-0.442274	0.006634	-0.008920	-0.003090	0.999955	
4484														-0.080114	-0.045211	9.795869	-0.441814	-0.897081	-0.006804	0.897063	-0.441855	0.006548	-0.008880	-0.003211	0.999955	
4485														-0.064987	-0.048052	9.810151	-0.441794	-0.897091	-0.006789	0.897072	-0.441835	0.006544	-0.008870	-0.003200	0.999956	
4486														-0.077178	-0.031714	9.766165	-0.441768	-0.897103	-0.006808	0.897085	-0.441809	0.006539	-0.008874	-0.003219	0.999955	
4487														-0.076008	-0.031019	9.795442	-0.441728	-0.897124	-0.006773	0.897106	-0.441768	0.006542	-0.008861	-0.003186	0.999956	
4488														-0.064984	-0.048783	9.780882	-0.441724	-0.897126	-0.006777	0.897108	-0.441764	0.006531	-0.008853	-0.003195	0.999956	
