// Start Time: Unknown: 
// Update Rate: 60.0Hz 
// Filter Profile: human (46.1) 
// Firmware Version: 4.6.0
PacketCounter	SampleTimeFine	Year	Month	Day	Second	UTC_Nano	UTC_Year	UTC_Month	UTC_Day	UTC_Hour	UTC_Minute	UTC_Second	UTC_Valid	Acc_X	Acc_Y	Acc_Z	Mat[1][1]	Mat[2][1]	Mat[3][1]	Mat[1][2]	Mat[2][2]	Mat[3][2]	Mat[1][3]	Mat[2][3]	Mat[3][3] 
3598														-0.098485	0.080514	9.759131	-0.995883	-0.090171	-0.009244	0.090088	-0.995893	0.009027	-0.010020	0.008157	0.999917	
3599														-0.081558	0.053704	9.774807	-0.995881	-0.090194	-0.009258	0.090111	-0.995891	0.009051	-0.010036	0.008179	0.999916	
3600														-0.098528	0.080546	9.729844	-0.995881	-0.090196	-0.009258	0.090113	-0.995891	0.009013	-0.010033	0.008141	0.999917	
3601														-0.082759	0.069320	9.774270	-0.995884	-0.090170	-0.009240	0.090087	-0.995893	0.009065	-0.010019	0.008196	0.999916	
3602														-0.098613	0.082851	9.759111	-0.995885	-0.090146	-0.009270	0.090063	-0.995895	0.009043	-0.010047	0.008171	0.999916	
3603														-0.097419	0.068472	9.759641	-0.995882	-0.090191	-0.009240	0.090108	-0.995891	0.009004	-0.010014	0.008135	0.999917	
3604														-0.098511	0.082893	9.744468	-0.995882	-0.090190	-0.009254	0.090107	-0.995891	0.009012	-0.010029	0.008141	0.999917	
3605														-0.098604	0.085075	9.788379	-0.995881	-0.090199	-0.009237	0.090116	-0.995890	0.009019	-0.010013	0.008150	0.999917	
3606														-0.082664	0.070596	9.744976	-0.995881	-0.090198	-0.009237	0.090115	-0.995891	0.009012	-0.010012	0.008143	0.999917	
3607														-0.112033	0.070461	9.788920	-0.995881	-0.090199	-0.009249	0.090116	-0.995890	0.009051	-0.010028	0.008180	0.999916	
3608														-0.081591	0.057784	9.760141	-0.995878	-0.090236	-0.009234	0.090154	-0.995887	0.009028	-0.010011	0.008158	0.999917	
3609														-0.098496	0.085665	9.744444	-0.995880	-0.090211	-0.009235	0.090128	-0.995889	0.009035	-0.010012	0.008166	0.999917	
3610														-0.082927	0.072780	9.744958	-0.995879	-0.090218	-0.009280	0.090134	-0.995889	0.009030	-0.010057	0.008156	0.999916	
3611														-0.113440	0.086004	9.759087	-0.995879	-0.090219	-0.009249	0.090135	-0.995889	0.009036	-0.010026	0.008165	0.999916	
3612														-0.084135	0.089546	9.773688	-0.995880	-0.090213	-0.009248	0.090130	-0.995889	0.009043	-0.010025	0.008172	0.999916	
3613														-0.098847	0.089387	9.788338	-0.995884	-0.090166	-0.009264	0.090083	-0.995893	0.009035	-0.010040	0.008164	0.999916	
3614														-0.097768	0.074691	9.774235	-0.995885	-0.090152	-0.009278	0.090069	-0.995895	0.009028	-0.010054	0.008156	0.999916	
3615														-0.067287	0.061416	9.730823	-0.995887	-0.090127	-0.009263	0.090044	-0.995897	0.009035	-0.010039	0.008164	0.999916	
3616														-0.098982	0.089984	9.759044	-0.995883	-0.090167	-0.009276	0.090083	-0.995893	0.009074	-0.010056	0.008201	0.999916	
3617														-0.112557	0.075376	9.774235	-0.995887	-0.090126	-0.009291	0.090042	-0.995897	0.009066	-0.010070	0.008193	0.999916	
3618														-0.082301	0.063652	9.774741	-0.995888	-0.090116	-0.009306	0.090032	-0.995898	0.009059	-0.010084	0.008184	0.999916	
3619														-0.083574	0.078205	9.759553	-0.995889	-0.090100	-0.009306	0.090016	-0.995899	0.009066	-0.010085	0.008191	0.999916	
3620														-0.112736	0.076900	9.774221	-0.995889	-0.090100	-0.009290	0.090016	-0.995899	0.009073	-0.010069	0.008200	0.999916	
3621														-0.099299	0.093296	9.773653	-0.995890	-0.090096	-0.009289	0.090013	-0.995899	0.009081	-0.010069	0.008208	0.999916	
3622														-0.096775	0.062919	9.730829	-0.995890	-0.090095	-0.009290	0.090011	-0.995900	0.009059	-0.010068	0.008186	0.999916	
3623														-0.099259	0.093075	9.744368	-0.995890	-0.090096	-0.009289	0.090012	-0.995899	0.009066	-0.010068	0.008193	0.999916	
3624														-0.099329	0.094682	9.773639	-0.995890	-0.090089	-0.009289	0.090005	-0.995900	0.009060	-0.010067	0.008186	0.999916	
3625														-0.082259	0.066700	9.760078	-0.995890	-0.090098	-0.009288	0.090014	-0.995899	0.009067	-0.010067	0.008194	0.999916	
3626														-0.098096	0.080643	9.759541	-0.995891	-0.090084	-0.009287	0.090000	-0.995900	0.009075	-0.010067	0.008201	0.999916	
3627														-0.082250	0.067249	9.745433	-0.995890	-0.090095	-0.009288	0.090011	-0.995899	0.009068	-0.010067	0.008195	0.999916	
3628														-0.098248	0.082691	9.788808	-0.995890	-0.090087	-0.009303	0.090003	-0.995900	0.009061	-0.010081	0.008187	0.999916	
3629														-0.098197	0.082024	9.759529	-0.995893	-0.090062	-0.009287	0.089978	-0.995903	0.009052	-0.010064	0.008179	0.999916	
3630														-0.096867	0.067399	9.745440	-0.995893	-0.090059	-0.009286	0.089976	-0.995903	0.009060	-0.010064	0.008187	0.999916	
3631														-0.096934	0.068944	9.774713	-0.995897	-0.090013	-0.009287	0.089929	-0.995907	0.009037	-0.010062	0.008165	0.999916	
3632														-0.112850	0.082725	9.774172	-0.995894	-0.090043	-0.009301	0.089959	-0.995904	0.009046	-0.010077	0.008172	0.999916	
3633														-0.098381	0.083912	9.759511	-0.995890	-0.090088	-0.009315	0.090005	-0.995900	0.009039	-0.010091	0.008164	0.999916	
3634														-0.105447	0.079967	9.759655	-0.995892	-0.090071	-0.009322	0.089987	-0.995902	0.009032	-0.010097	0.008156	0.999916	
3635														-0.112514	0.076023	9.759799	-0.995893	-0.090053	-0.009330	0.089970	-0.995904	0.009025	-0.010104	0.008149	0.999916	
3636														-0.097492	0.071330	9.774691	-0.995894	-0.090048	-0.009344	0.089964	-0.995904	0.009048	-0.010121	0.008170	0.999915	
3637														-0.098828	0.086571	9.774126	-0.995892	-0.090070	-0.009343	0.089986	-0.995902	0.009056	-0.010120	0.008178	0.999915	
3638														-0.096279	0.056868	9.745965	-0.995892	-0.090062	-0.009342	0.089978	-0.995902	0.009063	-0.010120	0.008185	0.999915	
3639														-0.082960	0.074897	9.789298	-0.995893	-0.090052	-0.009326	0.089968	-0.995903	0.009054	-0.010103	0.008178	0.999916	
3640														-0.097294	0.071921	9.730762	-0.995895	-0.090032	-0.009310	0.089948	-0.995905	0.009061	-0.010087	0.008186	0.999916	
3641														-0.113153	0.085758	9.730214	-0.995895	-0.090033	-0.009324	0.089950	-0.995905	0.009054	-0.010101	0.008178	0.999916	
3642														-0.098626	0.088573	9.759467	-0.995895	-0.090031	-0.009309	0.089947	-0.995905	0.009045	-0.010085	0.008171	0.999916	
3643														-0.097341	0.073788	9.745389	-0.995895	-0.090030	-0.009325	0.089947	-0.995906	0.009023	-0.010099	0.008147	0.999916	
3644														-0.097479	0.075272	9.774661	-0.995896	-0.090018	-0.009325	0.089935	-0.995907	0.009015	-0.010098	0.008139	0.999916	
3645														-0.097422	0.074580	9.745383	-0.995895	-0.090036	-0.009324	0.089953	-0.995905	0.009007	-0.010097	0.008132	0.999916	
3646														-0.097458	0.075580	9.760017	-0.995896	-0.090026	-0.009324	0.089942	-0.995906	0.009000	-0.010096	0.008124	0.999916	
3647														-0.111899	0.075965	9.789308	-0.995896	-0.090031	-0.009277	0.089948	-0.995906	0.009006	-0.010050	0.008134	0.999916	
3648														-0.083705	0.092471	9.759427	-0.995895	-0.090044	-0.009277	0.089961	-0.995905	0.008998	-0.010049	0.008127	0.999916	
3649														-0.095644	0.062972	9.775216	-0.995894	-0.090058	-0.009246	0.089975	-0.995904	0.008974	-0.010016	0.008105	0.999917	
3650														-0.078402	0.034877	9.761694	-0.995892	-0.090076	-0.009262	0.089993	-0.995902	0.008968	-0.010032	0.008097	0.999917	
3651														-0.098168	0.092441	9.759436	-0.995895	-0.090037	-0.009262	0.089954	-0.995905	0.008974	-0.010032	0.008104	0.999917	
3652														-0.098137	0.093597	9.774068	-0.995891	-0.090087	-0.009246	0.090004	-0.995901	0.008982	-0.010017	0.008113	0.999917	
3653														-0.111391	0.078325	9.774653	-0.995891	-0.090088	-0.009246	0.090006	-0.995901	0.008990	-0.010018	0.008121	0.999917	
3654														-0.095291	0.063828	9.731290	-0.995893	-0.090066	-0.009215	0.089984	-0.995903	0.008981	-0.009986	0.008115	0.999917	
3655														-0.096459	0.079423	9.745354	-0.995892	-0.090079	-0.009215	0.089997	-0.995902	0.008974	-0.009985	0.008108	0.999917	
3656														-0.081970	0.083006	9.789240	-0.995893	-0.090071	-0.009213	0.089989	-0.995902	0.008996	-0.009986	0.008130	0.999917	
3657														-0.095175	0.065512	9.731280	-0.995894	-0.090054	-0.009213	0.089972	-0.995904	0.009004	-0.009986	0.008138	0.999917	
3658														-0.094149	0.052004	9.746486	-0.995891	-0.090090	-0.009259	0.090008	-0.995900	0.008998	-0.010031	0.008128	0.999917	
3659														-0.097071	0.083888	9.803880	-0.995892	-0.090078	-0.009259	0.089996	-0.995902	0.008990	-0.010030	0.008120	0.999917	
3660														-0.111472	0.080810	9.745347	-0.995889	-0.090107	-0.009242	0.090024	-0.995899	0.008997	-0.010015	0.008128	0.999917	
3661														-0.080974	0.068743	9.731243	-0.995889	-0.090108	-0.009256	0.090026	-0.995899	0.008989	-0.010028	0.008119	0.999917	
3662														-0.097136	0.084767	9.789229	-0.995889	-0.090105	-0.009271	0.090023	-0.995899	0.008982	-0.010043	0.008111	0.999917	
3663														-0.098378	0.098702	9.759372	-0.995887	-0.090128	-0.009255	0.090046	-0.995897	0.008989	-0.010027	0.008119	0.999917	
3664														-0.111655	0.082831	9.745328	-0.995887	-0.090123	-0.009269	0.090041	-0.995897	0.008998	-0.010042	0.008126	0.999917	
3665														-0.094585	0.056130	9.761100	-0.995883	-0.090169	-0.009267	0.090086	-0.995893	0.009007	-0.010042	0.008135	0.999916	
3666														-0.068009	0.088326	9.759896	-0.995883	-0.090168	-0.009268	0.090085	-0.995894	0.008984	-0.010040	0.008112	0.999917	
3667														-0.111679	0.084278	9.745316	-0.995879	-0.090214	-0.009251	0.090131	-0.995889	0.008991	-0.010024	0.008120	0.999917	
3668														-0.095783	0.072750	9.775147	-0.995876	-0.090255	-0.009250	0.090172	-0.995886	0.009000	-0.010024	0.008129	0.999917	
3669														-0.095696	0.071514	9.731233	-0.995878	-0.090230	-0.009251	0.090147	-0.995888	0.008992	-0.010024	0.008121	0.999917	
3670														-0.095768	0.073189	9.760502	-0.995877	-0.090242	-0.009250	0.090159	-0.995887	0.008999	-0.010024	0.008128	0.999917	
3671														-0.110319	0.072901	9.775157	-0.995877	-0.090246	-0.009235	0.090163	-0.995887	0.008976	-0.010007	0.008106	0.999917	
3672														-0.095664	0.073330	9.745861	-0.995875	-0.090265	-0.009250	0.090183	-0.995885	0.008954	-0.010020	0.008083	0.999917	
3673														-0.081211	0.076098	9.775111	-0.995877	-0.090245	-0.009250	0.090163	-0.995887	0.008930	-0.010018	0.008060	0.999917	
3674														-0.110325	0.073983	9.775149	-0.995877	-0.090246	-0.009233	0.090164	-0.995887	0.008953	-0.010003	0.008083	0.999917	
3675														-0.097141	0.090459	9.774536	-0.995878	-0.090233	-0.009264	0.090151	-0.995888	0.008946	-0.010033	0.008074	0.999917	
3676														-0.081463	0.077628	9.775097	-0.995875	-0.090255	-0.009278	0.090173	-0.995886	0.008940	-0.010047	0.008066	0.999917	
3677														-0.108114	0.046928	9.790947	-0.995874	-0.090269	-0.009277	0.090186	-0.995885	0.008948	-0.010046	0.008074	0.999917	
3678														-0.081447	0.078064	9.760452	-0.995872	-0.090300	-0.009261	0.090217	-0.995882	0.008940	-0.010030	0.008068	0.999917	
3679														-0.095964	0.077106	9.760470	-0.995872	-0.090293	-0.009261	0.090211	-0.995883	0.008917	-0.010028	0.008045	0.999917	
3680														-0.094866	0.062955	9.761055	-0.995870	-0.090311	-0.009305	0.090229	-0.995881	0.008927	-0.010073	0.008051	0.999917	
3681														-0.081775	0.079661	9.760436	-0.995869	-0.090322	-0.009287	0.090239	-0.995880	0.008980	-0.010060	0.008105	0.999917	
3682														-0.096299	0.078847	9.760453	-0.995871	-0.090302	-0.009288	0.090219	-0.995882	0.008926	-0.010056	0.008052	0.999917	
3683														-0.096482	0.079721	9.775086	-0.995871	-0.090299	-0.009318	0.090216	-0.995882	0.008936	-0.010087	0.008058	0.999917	
3684														-0.096500	0.079043	9.745808	-0.995872	-0.090294	-0.009304	0.090212	-0.995883	0.008928	-0.010071	0.008052	0.999917	
3685														-0.081804	0.081415	9.760421	-0.995870	-0.090317	-0.009288	0.090234	-0.995881	0.008920	-0.010055	0.008045	0.999917	
3686														-0.094937	0.066392	9.775672	-0.995871	-0.090307	-0.009274	0.090225	-0.995882	0.008881	-0.010038	0.008007	0.999918	
3687														-0.081650	0.081925	9.760418	-0.995871	-0.090302	-0.009290	0.090220	-0.995882	0.008859	-0.010051	0.007984	0.999918	
3688														-0.108269	0.051348	9.776283	-0.995869	-0.090327	-0.009285	0.090245	-0.995880	0.008913	-0.010052	0.008038	0.999917	
3689														-0.080339	0.068599	9.761005	-0.995870	-0.090312	-0.009272	0.090231	-0.995881	0.008874	-0.010035	0.008000	0.999918	
3690														-0.081609	0.083540	9.760405	-0.995867	-0.090346	-0.009271	0.090264	-0.995878	0.008882	-0.010035	0.008008	0.999918	
3691														-0.096208	0.082780	9.760421	-0.995870	-0.090320	-0.009270	0.090238	-0.995881	0.008889	-0.010035	0.008016	0.999918	
3692														-0.094795	0.068647	9.761018	-0.995871	-0.090310	-0.009256	0.090229	-0.995882	0.008866	-0.010018	0.007994	0.999918	
3693														-0.096224	0.083654	9.760414	-0.995871	-0.090304	-0.009286	0.090223	-0.995882	0.008874	-0.010049	0.008000	0.999918	
3694														-0.110965	0.082732	9.760430	-0.995869	-0.090324	-0.009286	0.090242	-0.995881	0.008852	-0.010048	0.007977	0.999918	
3695														-0.095034	0.069947	9.761006	-0.995870	-0.090310	-0.009286	0.090229	-0.995882	0.008860	-0.010048	0.007985	0.999918	
3696														-0.079033	0.057317	9.761583	-0.995872	-0.090298	-0.009270	0.090216	-0.995883	0.008867	-0.010032	0.007994	0.999918	
3697														-0.094834	0.071054	9.761000	-0.995871	-0.090308	-0.009254	0.090227	-0.995882	0.008859	-0.010016	0.007987	0.999918	
3698														-0.094769	0.071569	9.760997	-0.995871	-0.090304	-0.009253	0.090222	-0.995882	0.008867	-0.010016	0.007995	0.999918	
3699														-0.097530	0.101830	9.774420	-0.995872	-0.090301	-0.009253	0.090220	-0.995882	0.008859	-0.010014	0.007987	0.999918	
3700														-0.094786	0.072591	9.760989	-0.995870	-0.090317	-0.009252	0.090236	-0.995881	0.008867	-0.010015	0.007996	0.999918	
3701														-0.093504	0.059815	9.790862	-0.995870	-0.090321	-0.009251	0.090240	-0.995881	0.008875	-0.010015	0.008003	0.999918	
3702														-0.096182	0.087118	9.731101	-0.995872	-0.090299	-0.009266	0.090217	-0.995882	0.008883	-0.010030	0.008010	0.999918	
3703														-0.080430	0.075097	9.746315	-0.995872	-0.090294	-0.009281	0.090212	-0.995883	0.008891	-0.010046	0.008017	0.999917	
3704														-0.108459	0.059583	9.776234	-0.995866	-0.090356	-0.009295	0.090273	-0.995877	0.008900	-0.010060	0.008024	0.999917	
3705														-0.082036	0.090679	9.745696	-0.995868	-0.090333	-0.009296	0.090251	-0.995879	0.008877	-0.010059	0.008001	0.999917	
3706														-0.095370	0.075854	9.760959	-0.995868	-0.090329	-0.009309	0.090247	-0.995880	0.008900	-0.010074	0.008023	0.999917	
3707														-0.110040	0.075062	9.760975	-0.995868	-0.090332	-0.009307	0.090250	-0.995879	0.008892	-0.010072	0.008016	0.999917	
3708														-0.095385	0.076801	9.760951	-0.995869	-0.090326	-0.009293	0.090244	-0.995880	0.008869	-0.010055	0.007994	0.999917	
3709														-0.095389	0.077164	9.760948	-0.995870	-0.090316	-0.009307	0.090234	-0.995881	0.008862	-0.010069	0.007986	0.999917	
3710														-0.094091	0.063026	9.761557	-0.995867	-0.090343	-0.009306	0.090262	-0.995879	0.008855	-0.010068	0.007979	0.999917	
3711														-0.095584	0.078642	9.775575	-0.995868	-0.090329	-0.009322	0.090248	-0.995880	0.008848	-0.010083	0.007970	0.999917	
3712														-0.108795	0.063202	9.776208	-0.995869	-0.090326	-0.009306	0.090245	-0.995880	0.008855	-0.010068	0.007979	0.999917	
3713														-0.095497	0.079129	9.760931	-0.995869	-0.090326	-0.009305	0.090245	-0.995880	0.008862	-0.010067	0.007986	0.999917	
3714														-0.108855	0.062443	9.732292	-0.995869	-0.090317	-0.009351	0.090235	-0.995881	0.008857	-0.010113	0.007977	0.999917	
3715														-0.094618	0.066252	9.776170	-0.995868	-0.090327	-0.009349	0.090245	-0.995880	0.008880	-0.010113	0.008000	0.999917	
3716														-0.095943	0.081411	9.775549	-0.995867	-0.090342	-0.009333	0.090260	-0.995879	0.008873	-0.010096	0.007993	0.999917	
3717														-0.095726	0.080618	9.746276	-0.995866	-0.090358	-0.009318	0.090276	-0.995877	0.008864	-0.010080	0.007986	0.999917	
3718														-0.081222	0.083682	9.775521	-0.995865	-0.090362	-0.009332	0.090280	-0.995877	0.008857	-0.010094	0.007977	0.999917	
3719														-0.081119	0.083579	9.760881	-0.995863	-0.090388	-0.009300	0.090307	-0.995875	0.008863	-0.010063	0.007987	0.999917	
3720														-0.108822	0.066806	9.761543	-0.995862	-0.090402	-0.009314	0.090320	-0.995873	0.008871	-0.010078	0.007993	0.999917	
3721														-0.101862	0.071742	9.765032	-0.995862	-0.090401	-0.009298	0.090319	-0.995873	0.008878	-0.010062	0.008002	0.999917	
3722														-0.094901	0.076678	9.768521	-0.995862	-0.090400	-0.009282	0.090318	-0.995873	0.008886	-0.010047	0.008010	0.999917	
3723														-0.095419	0.083915	9.746251	-0.995865	-0.090372	-0.009281	0.090290	-0.995876	0.008893	-0.010046	0.008018	0.999917	
3724														-0.094219	0.071875	9.790774	-0.995864	-0.090382	-0.009295	0.090300	-0.995875	0.008917	-0.010062	0.008040	0.999917	
3725														-0.081059	0.087256	9.760850	-0.995862	-0.090406	-0.009294	0.090323	-0.995873	0.008925	-0.010062	0.008048	0.999917	
3726														-0.108753	0.070465	9.761519	-0.995866	-0.090359	-0.009278	0.090277	-0.995877	0.008931	-0.010047	0.008056	0.999917	
3727														-0.094220	0.073011	9.776126	-0.995865	-0.090364	-0.009292	0.090282	-0.995876	0.008924	-0.010061	0.008048	0.999917	
3728														-0.095673	0.087384	9.760859	-0.995866	-0.090358	-0.009293	0.090276	-0.995877	0.008916	-0.010060	0.008040	0.999917	
3729														-0.092746	0.059396	9.776748	-0.995865	-0.090373	-0.009261	0.090291	-0.995875	0.008922	-0.010029	0.008049	0.999917	
3730														-0.109981	0.087080	9.760876	-0.995868	-0.090340	-0.009262	0.090258	-0.995878	0.008930	-0.010031	0.008058	0.999917	
3731														-0.094033	0.075069	9.776112	-0.995865	-0.090369	-0.009261	0.090287	-0.995876	0.008923	-0.010029	0.008050	0.999917	
3732														-0.077823	0.061178	9.747446	-0.995869	-0.090335	-0.009231	0.090253	-0.995879	0.008929	-0.009999	0.008059	0.999918	
3733														-0.093750	0.076033	9.776108	-0.995868	-0.090344	-0.009231	0.090262	-0.995878	0.008906	-0.009997	0.008036	0.999918	
3734														-0.108228	0.074495	9.761494	-0.995869	-0.090334	-0.009214	0.090252	-0.995879	0.008928	-0.009983	0.008059	0.999918	
3735														-0.092127	0.062577	9.776734	-0.995871	-0.090316	-0.009199	0.090234	-0.995881	0.008919	-0.009966	0.008052	0.999918	
3736														-0.092066	0.063168	9.776731	-0.995873	-0.090289	-0.009198	0.090208	-0.995883	0.008942	-0.009967	0.008075	0.999918	
3737														-0.092153	0.063752	9.776726	-0.995873	-0.090294	-0.009212	0.090213	-0.995882	0.008935	-0.009981	0.008067	0.999918	
3738														-0.108097	0.076205	9.746843	-0.995873	-0.090286	-0.009195	0.090204	-0.995883	0.008957	-0.009966	0.008090	0.999918	
3739														-0.093836	0.078351	9.746808	-0.995871	-0.090301	-0.009269	0.090218	-0.995881	0.008983	-0.010042	0.008110	0.999917	
3740														-0.079855	0.081392	9.776045	-0.995872	-0.090287	-0.009302	0.090205	-0.995883	0.008930	-0.010070	0.008054	0.999917	
3741														-0.091551	0.050676	9.777346	-0.995878	-0.090222	-0.009276	0.090141	-0.995890	0.008846	-0.010036	0.007973	0.999918	
3742														-0.089820	0.036053	9.777987	-0.995897	-0.090022	-0.009251	0.089941	-0.995908	0.008806	-0.010006	0.007938	0.999918	
3743														-0.344073	-0.519911	9.757581	-0.995950	-0.089438	-0.009202	0.089358	-0.995961	0.008782	-0.009951	0.007924	0.999919	
3744														-0.262752	0.298698	9.766120	-0.995713	-0.092029	-0.009269	0.091949	-0.995725	0.008747	-0.010034	0.007857	0.999919	
3745														-0.030935	0.188621	9.756846	-0.995569	-0.093587	-0.009100	0.093509	-0.995581	0.008672	-0.009871	0.007782	0.999921	
3746														0.107988	0.275867	9.753396	-0.995587	-0.093404	-0.009125	0.093326	-0.995599	0.008543	-0.009883	0.007653	0.999922	
3747														-0.153480	-0.192645	9.773080	-0.995713	-0.092042	-0.009113	0.091966	-0.995726	0.008442	-0.009851	0.007568	0.999923	
3748														-0.022891	0.263483	9.782920	-0.995891	-0.090097	-0.009183	0.090020	-0.995904	0.008499	-0.009911	0.007637	0.999922	
3749														0.041869	-0.098309	9.769528	-0.996127	-0.087441	-0.009241	0.087363	-0.996140	0.008492	-0.009948	0.007652	0.999921	
3750														-0.105388	0.049088	9.762741	-0.996332	-0.085067	-0.009297	0.084990	-0.996347	0.008348	-0.009973	0.007527	0.999922	
3751														-0.109972	0.253133	9.739173	-0.996397	-0.084296	-0.009288	0.084221	-0.996413	0.008219	-0.009947	0.007407	0.999923	
3752														-0.084237	0.137609	9.744247	-0.996427	-0.083941	-0.009281	0.083867	-0.996444	0.008165	-0.009933	0.007357	0.999924	
3753														-0.094875	0.094827	9.790080	-0.996444	-0.083742	-0.009299	0.083667	-0.996460	0.008189	-0.009952	0.007382	0.999923	
3754														-0.084893	0.139917	9.773496	-0.996461	-0.083528	-0.009394	0.083452	-0.996478	0.008201	-0.010046	0.007388	0.999922	
3755														-0.094726	0.079001	9.732154	-0.996474	-0.083372	-0.009457	0.083295	-0.996491	0.008226	-0.010109	0.007409	0.999921	
3756														-0.088694	0.008082	9.764610	-0.996522	-0.082784	-0.009529	0.082706	-0.996540	0.008237	-0.010178	0.007420	0.999921	
3757														-0.047283	0.028022	9.778531	-0.996650	-0.081212	-0.009654	0.081134	-0.996669	0.008263	-0.010292	0.007452	0.999919	
3758														-0.113237	0.094715	9.746127	-0.996751	-0.079951	-0.009759	0.079873	-0.996771	0.008213	-0.010384	0.007407	0.999919	
3759														-0.098374	0.082207	9.761372	-0.996804	-0.079270	-0.009880	0.079191	-0.996826	0.008178	-0.010497	0.007369	0.999918	
3760														-0.102083	0.112779	9.789346	-0.996831	-0.078919	-0.009979	0.078840	-0.996854	0.008142	-0.010591	0.007329	0.999917	
3761														-0.131751	0.108597	9.745463	-0.996822	-0.079026	-0.010007	0.078946	-0.996846	0.008151	-0.010619	0.007335	0.999917	
3762														-0.115113	0.081719	9.761358	-0.996822	-0.079024	-0.010084	0.078943	-0.996846	0.008115	-0.010694	0.007293	0.999916	
3763														-0.098401	0.054856	9.777257	-0.996822	-0.079017	-0.010099	0.078937	-0.996847	0.008123	-0.010709	0.007300	0.999916	
3764														-0.101160	0.083297	9.746694	-0.996821	-0.079021	-0.010128	0.078941	-0.996846	0.008131	-0.010739	0.007306	0.999916	
3765														-0.101545	0.083938	9.746685	-0.996818	-0.079058	-0.010172	0.078976	-0.996843	0.008157	-0.010785	0.007328	0.999915	
3766														-0.084901	0.057374	9.762588	-0.996807	-0.079190	-0.010229	0.079109	-0.996833	0.008167	-0.010844	0.007332	0.999914	
3767														-0.085575	0.057414	9.747944	-0.996780	-0.079522	-0.010310	0.079440	-0.996806	0.008207	-0.010929	0.007362	0.999913	
3768														-0.042769	0.062848	9.762533	-0.996729	-0.080149	-0.010401	0.080065	-0.996756	0.008249	-0.011028	0.007389	0.999912	
3769														-0.071354	0.046921	9.777829	-0.996640	-0.081243	-0.010436	0.081159	-0.996667	0.008259	-0.011072	0.007385	0.999911	
3770														-0.103381	0.072249	9.747276	-0.996533	-0.082540	-0.010437	0.082456	-0.996561	0.008207	-0.011079	0.007318	0.999912	
3771														0.043551	0.072538	9.762463	-0.996380	-0.084365	-0.010455	0.084281	-0.996408	0.008263	-0.011115	0.007352	0.999911	
3772														-0.077310	0.105778	9.760576	-0.996229	-0.086138	-0.010399	0.086055	-0.996256	0.008254	-0.011071	0.007328	0.999912	
3773														-0.062495	0.106977	9.745929	-0.996080	-0.087851	-0.010375	0.087767	-0.996107	0.008262	-0.011061	0.007319	0.999912	
3774														-0.030460	0.081719	9.761846	-0.995867	-0.090234	-0.010352	0.090151	-0.995894	0.008224	-0.011052	0.007257	0.999913	
3775														-0.012965	0.055316	9.777774	-0.995619	-0.092932	-0.010335	0.092848	-0.995646	0.008280	-0.011059	0.007284	0.999912	
3776														-0.105255	0.089632	9.761235	-0.995327	-0.095998	-0.010373	0.095915	-0.995355	0.008261	-0.011118	0.007228	0.999912	
3777														-0.186780	0.155187	9.772629	-0.995017	-0.099158	-0.010408	0.099075	-0.995045	0.008288	-0.011178	0.007216	0.999911	
3778														-0.019597	0.234180	9.784483	-0.994671	-0.102575	-0.010418	0.102490	-0.994699	0.008360	-0.011220	0.007248	0.999911	
3779														0.035125	0.136873	9.759784	-0.994296	-0.106141	-0.010428	0.106057	-0.994325	0.008326	-0.011253	0.007172	0.999911	
3780														0.061788	0.036555	9.749754	-0.993863	-0.110135	-0.010370	0.110052	-0.993891	0.008274	-0.011218	0.007082	0.999912	
3781														-0.061849	0.081969	9.776467	-0.993408	-0.114163	-0.010384	0.114080	-0.993437	0.008285	-0.011262	0.007046	0.999912	
3782														-0.141408	0.012373	9.764544	-0.992958	-0.118021	-0.010295	0.117938	-0.992986	0.008293	-0.011201	0.007020	0.999913	
3783														-0.174978	0.155504	9.757944	-0.992495	-0.121852	-0.010300	0.121770	-0.992524	0.008291	-0.011233	0.006975	0.999913	
3784														-0.100805	0.150960	9.758536	-0.992018	-0.125677	-0.010241	0.125594	-0.992047	0.008316	-0.011204	0.006963	0.999913	
3785														-0.171546	0.125845	9.744625	-0.991496	-0.129736	-0.010238	0.129654	-0.991524	0.008329	-0.011232	0.006931	0.999913	
3786														-0.045627	0.070449	9.762468	-0.990894	-0.134253	-0.010246	0.134172	-0.990924	0.008236	-0.011259	0.006786	0.999914	
3787														0.022803	0.006491	9.765734	-0.990141	-0.139700	-0.010278	0.139619	-0.990171	0.008192	-0.011321	0.006676	0.999914	
3788														-0.090966	-0.025771	9.766503	-0.989416	-0.144740	-0.010301	0.144659	-0.989448	0.008193	-0.011378	0.006616	0.999913	
3789														-0.112123	0.104322	9.760518	-0.988643	-0.149930	-0.010303	0.149850	-0.988675	0.008210	-0.011417	0.006573	0.999913	
3790														-0.180110	0.153075	9.772535	-0.987856	-0.155035	-0.010259	0.154955	-0.987887	0.008221	-0.011409	0.006532	0.999914	
3791														-0.221251	0.130432	9.758604	-0.987001	-0.160391	-0.010205	0.160310	-0.987032	0.008280	-0.011401	0.006536	0.999914	
3792														-0.146116	0.039796	9.763215	-0.986132	-0.165646	-0.010218	0.165565	-0.986164	0.008325	-0.011456	0.006518	0.999913	
3793														-0.198827	0.001159	9.779242	-0.985170	-0.171275	-0.010205	0.171194	-0.985202	0.008371	-0.011488	0.006500	0.999913	
3794														0.131246	-0.011422	9.767643	-0.984059	-0.177545	-0.010276	0.177463	-0.984092	0.008335	-0.011592	0.006378	0.999912	
3795														0.151534	-0.113079	9.713818	-0.982914	-0.183781	-0.010233	0.183700	-0.982947	0.008398	-0.011602	0.006374	0.999912	
3796														-0.125198	0.149435	9.787709	-0.981759	-0.189852	-0.010217	0.189772	-0.981793	0.008357	-0.011618	0.006265	0.999913	
3797														-0.114360	0.090982	9.761120	-0.980441	-0.196541	-0.010321	0.196458	-0.980475	0.008510	-0.011792	0.006316	0.999911	
3798														-0.011202	0.025078	9.779711	-0.979067	-0.203275	-0.010328	0.203193	-0.979102	0.008519	-0.011844	0.006243	0.999910	
3799														0.048615	0.023066	9.751069	-0.977769	-0.209425	-0.010433	0.209341	-0.977805	0.008582	-0.011999	0.006207	0.999909	
3800														-0.207360	0.086752	9.789733	-0.976484	-0.215339	-0.010434	0.215256	-0.976520	0.008546	-0.012030	0.006099	0.999909	
3801														-0.143740	0.068570	9.747143	-0.974904	-0.222381	-0.010455	0.222298	-0.974942	0.008483	-0.012079	0.005945	0.999909	
3802														-0.151246	0.097548	9.775053	-0.973346	-0.229107	-0.010370	0.229025	-0.973384	0.008486	-0.012038	0.005885	0.999910	
3803														-0.116868	0.075904	9.776375	-0.971681	-0.236061	-0.010553	0.235978	-0.971721	0.008519	-0.012265	0.005787	0.999908	
3804														0.074754	0.033174	9.751050	-0.969964	-0.243021	-0.010495	0.242941	-0.970005	0.008339	-0.012207	0.005539	0.999910	
3805														-0.189978	0.114441	9.759068	-0.968178	-0.250039	-0.010533	0.249959	-0.968220	0.008421	-0.012304	0.005521	0.999909	
3806														-0.152568	0.141223	9.787607	-0.966349	-0.257025	-0.010426	0.256945	-0.966389	0.008420	-0.012240	0.005458	0.999910	
3807														-0.087697	0.019788	9.749824	-0.964558	-0.263669	-0.010357	0.263591	-0.964599	0.008303	-0.012179	0.005279	0.999912	
3808														-0.170023	0.040858	9.762494	-0.962847	-0.269849	-0.010345	0.269773	-0.962889	0.008189	-0.012171	0.005094	0.999913	
3809														-0.333848	-0.024561	9.778002	-0.961217	-0.275603	-0.010253	0.275529	-0.961259	0.008082	-0.012083	0.004943	0.999915	
3810														-0.240926	0.121841	9.728551	-0.959694	-0.280860	-0.010278	0.280787	-0.959737	0.008002	-0.012111	0.004794	0.999915	
3811														-0.280142	0.097068	9.802436	-0.958378	-0.285318	-0.010276	0.285245	-0.958421	0.008042	-0.012143	0.004776	0.999915	
3812														-0.142366	0.046397	9.762472	-0.957008	-0.289877	-0.010377	0.289803	-0.957052	0.008096	-0.012278	0.004740	0.999913	
3813														-0.256117	-0.034267	9.793889	-0.955675	-0.294238	-0.010475	0.294162	-0.955720	0.008212	-0.012428	0.004767	0.999911	
3814														-0.080281	-0.008382	9.765814	-0.954253	-0.298815	-0.010492	0.298737	-0.954299	0.008317	-0.012497	0.004802	0.999910	
3815														-0.094431	0.033056	9.763756	-0.952888	-0.303139	-0.010551	0.303063	-0.952935	0.008164	-0.012530	0.004581	0.999911	
3816														-0.132177	0.142872	9.743639	-0.951538	-0.307348	-0.010566	0.307272	-0.951586	0.008236	-0.012586	0.004590	0.999910	
3817														-0.235639	0.216940	9.753516	-0.950168	-0.311560	-0.010526	0.311484	-0.950215	0.008255	-0.012574	0.004565	0.999911	
3818														-0.010558	-0.031523	9.738555	-0.948728	-0.315916	-0.010577	0.315840	-0.948777	0.008258	-0.012644	0.004494	0.999910	
3819														-0.102146	-0.078195	9.768607	-0.947419	-0.319824	-0.010459	0.319750	-0.947467	0.008141	-0.012513	0.004368	0.999912	
3820														-0.255932	0.007228	9.791826	-0.946057	-0.323835	-0.010383	0.323762	-0.946104	0.008122	-0.012454	0.004322	0.999913	
3821														-0.328933	-0.005663	9.776607	-0.944777	-0.327551	-0.010360	0.327479	-0.944824	0.008018	-0.012414	0.004183	0.999914	
3822														-0.197331	0.102974	9.759049	-0.943655	-0.330769	-0.010352	0.330699	-0.943703	0.007992	-0.012413	0.004119	0.999914	
3823														-0.158589	0.040177	9.777097	-0.942763	-0.333302	-0.010334	0.333231	-0.942811	0.008039	-0.012422	0.004136	0.999914	
3824														-0.197325	-0.022498	9.749976	-0.941993	-0.335477	-0.010261	0.335406	-0.942040	0.007999	-0.012350	0.004093	0.999915	
3825														-0.219222	0.078925	9.759785	-0.941326	-0.337343	-0.010217	0.337274	-0.941373	0.007931	-0.012294	0.004020	0.999916	
3826														-0.174623	0.127461	9.772969	-0.940750	-0.338950	-0.010174	0.338881	-0.940796	0.007894	-0.012247	0.003978	0.999917	
3827														-0.137518	0.030278	9.748528	-0.940182	-0.340521	-0.010167	0.340453	-0.940229	0.007831	-0.012226	0.003901	0.999918	
3828														-0.124302	0.036879	9.777771	-0.939638	-0.342018	-0.010180	0.341950	-0.939685	0.007847	-0.012250	0.003893	0.999917	
3829														-0.078837	-0.040187	9.767252	-0.939127	-0.343419	-0.010157	0.343351	-0.939175	0.007812	-0.012222	0.003849	0.999918	
3830														-0.116421	-0.023409	9.765920	-0.938677	-0.344648	-0.010156	0.344582	-0.938724	0.007765	-0.012210	0.003789	0.999918	
3831														-0.093657	0.080043	9.761689	-0.938256	-0.345791	-0.010171	0.345724	-0.938304	0.007828	-0.012250	0.003828	0.999918	
3832														-0.058437	0.109721	9.746287	-0.937785	-0.347066	-0.010231	0.346998	-0.937833	0.007868	-0.012326	0.003829	0.999917	
3833														-0.075553	0.072216	9.747708	-0.937254	-0.348498	-0.010235	0.348430	-0.937302	0.007853	-0.012330	0.003794	0.999917	
3834														-0.098615	0.040232	9.756109	-0.936689	-0.350008	-0.010287	0.349940	-0.936738	0.007862	-0.012388	0.003765	0.999916	
3835														-0.121676	0.008248	9.764510	-0.936124	-0.351518	-0.010339	0.351450	-0.936174	0.007871	-0.012446	0.003735	0.999916	
3836														-0.099173	0.050319	9.792328	-0.935507	-0.353157	-0.010303	0.353090	-0.935557	0.007788	-0.012390	0.003648	0.999917	
3837														-0.166068	0.020620	9.748549	-0.934929	-0.354686	-0.010308	0.354620	-0.934979	0.007666	-0.012357	0.003511	0.999917	
3838														-0.125239	0.037280	9.763120	-0.934428	-0.356005	-0.010285	0.355940	-0.934478	0.007645	-0.012333	0.003483	0.999918	
3839														-0.138438	0.031593	9.763148	-0.933881	-0.357436	-0.010260	0.357373	-0.933931	0.007533	-0.012274	0.003368	0.999919	
3840														-0.139626	0.034997	9.766637	-0.933301	-0.358946	-0.010242	0.358883	-0.933351	0.007499	-0.012251	0.003323	0.999919	
3841														-0.140813	0.038401	9.770126	-0.932720	-0.360455	-0.010225	0.360393	-0.932771	0.007465	-0.012228	0.003278	0.999920	
3842														-0.146428	0.091155	9.760360	-0.931992	-0.362335	-0.010230	0.362273	-0.932042	0.007468	-0.012241	0.003254	0.999920	
3843														-0.092328	0.113268	9.745621	-0.931337	-0.364014	-0.010232	0.363951	-0.931388	0.007515	-0.012266	0.003275	0.999919	
3844														-0.095638	0.082684	9.776288	-0.930720	-0.365588	-0.010252	0.365524	-0.930771	0.007567	-0.012308	0.003295	0.999919	
3845														-0.094933	0.004028	9.765180	-0.930160	-0.367012	-0.010288	0.366947	-0.930210	0.007635	-0.012372	0.003327	0.999918	
3846														-0.097371	-0.028696	9.751965	-0.929630	-0.368350	-0.010321	0.368286	-0.929681	0.007641	-0.012410	0.003302	0.999918	
3847														-0.106052	-0.046821	9.767316	-0.929050	-0.369809	-0.010407	0.369744	-0.929102	0.007688	-0.012512	0.003295	0.999916	
3848														-0.094376	0.037436	9.749104	-0.928345	-0.371574	-0.010442	0.371509	-0.928397	0.007712	-0.012560	0.003280	0.999916	
3849														-0.192743	0.044714	9.761769	-0.927607	-0.373413	-0.010382	0.373347	-0.927659	0.007734	-0.012520	0.003298	0.999916	
3850														-0.157702	0.075577	9.760999	-0.926788	-0.375443	-0.010346	0.375378	-0.926840	0.007685	-0.012475	0.003238	0.999917	
3851														-0.159185	0.042818	9.762438	-0.925850	-0.377752	-0.010285	0.377688	-0.925901	0.007647	-0.012412	0.003195	0.999918	
3852														-0.118573	0.060209	9.762363	-0.924867	-0.380152	-0.010281	0.380089	-0.924919	0.007620	-0.012406	0.003140	0.999918	
3853														-0.117003	0.092674	9.760930	-0.923822	-0.382683	-0.010310	0.382620	-0.923875	0.007568	-0.012421	0.003047	0.999918	
3854														-0.092223	0.071459	9.762308	-0.922698	-0.385384	-0.010347	0.385321	-0.922752	0.007535	-0.012451	0.002966	0.999918	
3855														-0.086586	0.057987	9.763009	-0.921559	-0.388101	-0.010350	0.388039	-0.921612	0.007511	-0.012454	0.002906	0.999918	
3856														-0.113750	0.046846	9.777692	-0.920423	-0.390787	-0.010348	0.390726	-0.920477	0.007517	-0.012463	0.002876	0.999918	
3857														-0.075181	0.032525	9.779044	-0.919254	-0.393529	-0.010343	0.393467	-0.919308	0.007540	-0.012475	0.002861	0.999918	
3858														-0.139037	0.066562	9.747038	-0.918040	-0.396352	-0.010358	0.396291	-0.918094	0.007519	-0.012490	0.002798	0.999918	
3859														-0.100679	0.052677	9.763025	-0.916813	-0.399183	-0.010358	0.399122	-0.916867	0.007496	-0.012489	0.002738	0.999918	
3860														-0.054485	0.056537	9.734383	-0.915494	-0.402197	-0.010410	0.402136	-0.915549	0.007500	-0.012547	0.002679	0.999918	
3861														-0.042731	0.030751	9.750426	-0.914140	-0.405266	-0.010407	0.405206	-0.914195	0.007461	-0.012538	0.002604	0.999918	
3862														-0.076163	-0.000631	9.751217	-0.912809	-0.408255	-0.010355	0.408194	-0.912864	0.007522	-0.012524	0.002639	0.999918	
3863														-0.319820	-0.033421	9.777392	-0.911669	-0.410794	-0.010399	0.410733	-0.911725	0.007476	-0.012552	0.002544	0.999918	
3864														-0.180819	0.014724	9.748550	-0.910687	-0.412967	-0.010392	0.412906	-0.910743	0.007495	-0.012560	0.002535	0.999918	
3865														-0.181156	0.015572	9.763180	-0.909733	-0.415064	-0.010391	0.415004	-0.909789	0.007500	-0.012566	0.002511	0.999918	
3866														-0.148248	0.082095	9.790189	-0.908732	-0.417251	-0.010399	0.417191	-0.908788	0.007524	-0.012590	0.002499	0.999918	
3867														-0.115497	0.047788	9.763029	-0.907636	-0.419630	-0.010398	0.419570	-0.907692	0.007484	-0.012579	0.002430	0.999918	
3868														-0.089555	0.028092	9.764422	-0.906493	-0.422092	-0.010399	0.422032	-0.906550	0.007507	-0.012596	0.002416	0.999918	
3869														-0.096768	0.009585	9.779792	-0.905426	-0.424375	-0.010419	0.424315	-0.905483	0.007534	-0.012631	0.002400	0.999917	
3870														-0.129386	0.042062	9.763046	-0.904409	-0.426539	-0.010430	0.426479	-0.904466	0.007542	-0.012650	0.002373	0.999917	
3871														-0.089967	0.060933	9.748323	-0.903451	-0.428564	-0.010461	0.428505	-0.903509	0.007476	-0.012656	0.002272	0.999917	
3872														-0.083807	0.048649	9.763667	-0.902505	-0.430552	-0.010441	0.430493	-0.902563	0.007509	-0.012656	0.002282	0.999917	
3873														-0.071032	0.088659	9.762168	-0.901548	-0.432554	-0.010435	0.432494	-0.901605	0.007544	-0.012671	0.002288	0.999917	
3874														0.040421	0.063799	9.765559	-0.900438	-0.434859	-0.010403	0.434800	-0.900496	0.007513	-0.012635	0.002241	0.999918	
3875														-0.044369	0.003726	9.751864	-0.899346	-0.437111	-0.010519	0.437051	-0.899405	0.007530	-0.012752	0.002174	0.999916	
3876														-0.117133	-0.015977	9.765926	-0.898138	-0.439587	-0.010536	0.439528	-0.898197	0.007542	-0.012779	0.002143	0.999916	
3877														0.019131	0.071645	9.764866	-0.896930	-0.442047	-0.010505	0.441987	-0.896989	0.007559	-0.012765	0.002137	0.999916	
3878														-0.244471	0.100849	9.772748	-0.895620	-0.444693	-0.010612	0.444633	-0.895680	0.007639	-0.012902	0.002124	0.999915	
3879														-0.144829	0.035829	9.748403	-0.894054	-0.447835	-0.010570	0.447776	-0.894114	0.007549	-0.012832	0.002016	0.999916	
3880														0.042756	0.119798	9.763319	-0.892260	-0.451399	-0.010595	0.451339	-0.892320	0.007601	-0.012885	0.002000	0.999915	
3881														-0.208967	-0.030813	9.764665	-0.890154	-0.455537	-0.010558	0.455477	-0.890215	0.007643	-0.012880	0.001994	0.999915	
3882														-0.107891	0.089753	9.746818	-0.888144	-0.459443	-0.010583	0.459384	-0.888205	0.007651	-0.012915	0.001934	0.999915	
3883														-0.126601	0.062099	9.747612	-0.886134	-0.463308	-0.010571	0.463251	-0.886195	0.007477	-0.012832	0.001729	0.999916	
3884														-0.203368	0.018703	9.747813	-0.884252	-0.466890	-0.010585	0.466833	-0.884314	0.007498	-0.012861	0.001688	0.999916	
3885														-0.128821	0.095110	9.775399	-0.882341	-0.470492	-0.010561	0.470436	-0.882403	0.007415	-0.012808	0.001574	0.999917	
3886														0.111553	0.145842	9.749213	-0.880015	-0.474829	-0.010540	0.474772	-0.880077	0.007495	-0.012835	0.001591	0.999916	
3887														0.065362	0.021080	9.783051	-0.877478	-0.479502	-0.010477	0.479447	-0.877540	0.007377	-0.012732	0.001450	0.999918	
3888														-0.174334	-0.031917	9.794621	-0.875021	-0.483970	-0.010506	0.483914	-0.875083	0.007486	-0.012817	0.001466	0.999917	
3889														-0.005354	-0.002327	9.753240	-0.872323	-0.488816	-0.010547	0.488759	-0.872386	0.007569	-0.012901	0.001448	0.999916	
3890														-0.038653	-0.088414	9.770965	-0.869274	-0.494221	-0.010459	0.494164	-0.869335	0.007593	-0.012845	0.001431	0.999916	
3891														-0.024951	-0.080161	9.770938	-0.865929	-0.500059	-0.010399	0.500004	-0.865990	0.007580	-0.012796	0.001364	0.999917	
3892														-0.202891	0.015790	9.762466	-0.862448	-0.506040	-0.010327	0.505986	-0.862509	0.007473	-0.012689	0.001219	0.999919	
3893														-0.264817	0.114776	9.771274	-0.859150	-0.511620	-0.010305	0.511566	-0.859211	0.007515	-0.012699	0.001185	0.999919	
3894														-0.269238	0.092265	9.742780	-0.856138	-0.516645	-0.010288	0.516592	-0.856199	0.007476	-0.012671	0.001086	0.999919	
3895														-0.212041	0.110028	9.743359	-0.853186	-0.521506	-0.010264	0.521454	-0.853247	0.007372	-0.012602	0.000937	0.999920	
3896														-0.139983	0.051485	9.747656	-0.849945	-0.526772	-0.010251	0.526720	-0.850006	0.007417	-0.012620	0.000905	0.999920	
3897														-0.034935	-0.001714	9.752596	-0.846469	-0.532341	-0.010202	0.532290	-0.846530	0.007439	-0.012597	0.000867	0.999920	
3898														-0.193206	-0.001539	9.763236	-0.842744	-0.538217	-0.010203	0.538168	-0.842806	0.007303	-0.012530	0.000664	0.999921	
3899														-0.140634	0.103132	9.760018	-0.839151	-0.543804	-0.010151	0.543756	-0.839212	0.007277	-0.012476	0.000587	0.999922	
3900														-0.176634	0.077965	9.774803	-0.835535	-0.549346	-0.010034	0.549300	-0.835595	0.007091	-0.012280	0.000413	0.999925	
3901														-0.139937	-0.026133	9.736127	-0.831801	-0.554984	-0.010005	0.554941	-0.831861	0.006978	-0.012195	0.000252	0.999926	
3902														-0.210298	-0.002075	9.791896	-0.827954	-0.560707	-0.009943	0.560664	-0.828014	0.006967	-0.012139	0.000194	0.999926	
3903														-0.188293	-0.008054	9.748692	-0.824273	-0.566105	-0.009924	0.566063	-0.824333	0.006951	-0.012116	0.000112	0.999927	
3904														-0.073898	-0.015720	9.766668	-0.820731	-0.571229	-0.009876	0.571188	-0.820791	0.006845	-0.012016	-0.000023	0.999928	
3905														0.084884	-0.007890	9.770575	-0.817143	-0.576351	-0.009847	0.576310	-0.817202	0.006889	-0.012017	-0.000045	0.999928	
3906														0.169060	-0.019628	9.743997	-0.813025	-0.582149	-0.009645	0.582111	-0.813082	0.006694	-0.011739	-0.000172	0.999931	
3907														0.337786	-0.019779	9.763164	-0.808256	-0.588753	-0.009636	0.588718	-0.808313	0.006468	-0.011597	-0.000445	0.999933	
3908														0.305724	0.049186	9.759456	-0.802925	-0.596002	-0.009618	0.595969	-0.802982	0.006357	-0.011512	-0.000628	0.999934	
3909														0.068588	-0.095966	9.802959	-0.797062	-0.603821	-0.009549	0.603790	-0.797119	0.006252	-0.011387	-0.000783	0.999935	
3910														0.047683	-0.230470	9.734544	-0.790860	-0.611924	-0.009510	0.611892	-0.790916	0.006271	-0.011359	-0.000859	0.999935	
3911														0.032037	-0.298311	9.780863	-0.784686	-0.619822	-0.009402	0.619790	-0.784742	0.006268	-0.011263	-0.000909	0.999936	
3912														-0.229699	-0.117249	9.795359	-0.778161	-0.627997	-0.009216	0.627967	-0.778215	0.006226	-0.011082	-0.000943	0.999938	
3913														-0.256404	-0.108040	9.750119	-0.771625	-0.636010	-0.009213	0.635981	-0.771680	0.006180	-0.011040	-0.001091	0.999938	
3914														-0.410317	0.067052	9.767833	-0.765404	-0.643485	-0.009137	0.643456	-0.765458	0.006202	-0.010985	-0.001132	0.999939	
3915														-0.244039	0.075435	9.772308	-0.758738	-0.651332	-0.009115	0.651304	-0.758792	0.006168	-0.010933	-0.001257	0.999939	
3916														-0.235806	0.020374	9.759993	-0.751876	-0.659242	-0.009090	0.659215	-0.751930	0.006085	-0.010847	-0.001417	0.999940	
3917														-0.143082	-0.015911	9.764141	-0.744889	-0.667128	-0.009011	0.667103	-0.744942	0.006017	-0.010727	-0.001529	0.999941	
3918														-0.237174	-0.066267	9.777823	-0.737870	-0.674882	-0.009040	0.674858	-0.737923	0.005973	-0.010702	-0.001694	0.999941	
3919														-0.132542	-0.070220	9.781089	-0.730890	-0.682435	-0.009058	0.682413	-0.730944	0.005843	-0.010608	-0.001911	0.999942	
3920														-0.182549	-0.082792	9.765233	-0.723756	-0.689996	-0.009072	0.689976	-0.723810	0.005762	-0.010542	-0.002089	0.999942	
3921														-0.264134	0.017615	9.744068	-0.717192	-0.696817	-0.009019	0.696797	-0.717246	0.005666	-0.010416	-0.002221	0.999943	
3922														-0.238696	0.277107	9.793690	-0.712297	-0.701820	-0.009033	0.701801	-0.712351	0.005642	-0.010394	-0.002320	0.999943	
3923														-0.287771	0.158619	9.752547	-0.707616	-0.706539	-0.009025	0.706522	-0.707669	0.005493	-0.010267	-0.002489	0.999944	
3924														-0.239205	0.251306	9.750623	-0.702788	-0.711343	-0.009016	0.711326	-0.702841	0.005460	-0.010220	-0.002576	0.999944	
3925														-0.200319	0.272875	9.765752	-0.697784	-0.716252	-0.008960	0.716237	-0.697836	0.005410	-0.010127	-0.002643	0.999945	
3926														-0.251696	0.217139	9.766126	-0.692283	-0.721569	-0.009107	0.721555	-0.692337	0.005349	-0.010165	-0.002868	0.999944	
3927														-0.154426	0.106885	9.773369	-0.686147	-0.727407	-0.008955	0.727393	-0.686200	0.005405	-0.010076	-0.002805	0.999945	
3928														-0.102602	-0.057481	9.751740	-0.679169	-0.733926	-0.009021	0.733913	-0.679223	0.005346	-0.010051	-0.002990	0.999945	
3929														-0.156238	-0.185039	9.798476	-0.671959	-0.740535	-0.008941	0.740522	-0.672011	0.005311	-0.009941	-0.003052	0.999946	
3930														-0.060929	-0.034254	9.752243	-0.664776	-0.746990	-0.008879	0.746977	-0.664828	0.005317	-0.009875	-0.003098	0.999946	
3931														0.075022	0.081923	9.738110	-0.659140	-0.751968	-0.008858	0.751955	-0.659192	0.005355	-0.009866	-0.003131	0.999946	
3932														-0.286686	0.152117	9.752495	-0.653055	-0.757259	-0.008856	0.757248	-0.653107	0.005242	-0.009753	-0.003283	0.999947	
3933														-0.265112	-0.056086	9.760508	-0.646281	-0.763048	-0.008802	0.763038	-0.646332	0.005162	-0.009628	-0.003380	0.999948	
3934														-0.135983	0.008746	9.762669	-0.639339	-0.768874	-0.008792	0.768866	-0.639390	0.005054	-0.009507	-0.003528	0.999949	
3935														-0.113482	-0.083950	9.766588	-0.632437	-0.774562	-0.008839	0.774555	-0.632487	0.004939	-0.009416	-0.003723	0.999949	
3936														-0.182264	0.041422	9.774451	-0.625455	-0.780209	-0.008923	0.780204	-0.625506	0.004892	-0.009398	-0.003902	0.999948	
3937														-0.258575	-0.013116	9.773512	-0.618453	-0.785771	-0.008906	0.785767	-0.618504	0.004849	-0.009318	-0.003999	0.999949	
3938														-0.277051	-0.091750	9.760742	-0.611328	-0.791328	-0.008839	0.791324	-0.611378	0.004801	-0.009203	-0.004059	0.999949	
3939														0.121450	-0.272122	9.737093	-0.606459	-0.795065	-0.008869	0.795062	-0.606510	0.004705	-0.009120	-0.004198	0.999950	
3940														-0.064427	0.150146	9.774993	-0.602210	-0.798287	-0.008961	0.798286	-0.602261	0.004630	-0.009093	-0.004365	0.999949	
3941														-0.088367	0.040448	9.777719	-0.596467	-0.802588	-0.008968	0.802587	-0.596517	0.004602	-0.009043	-0.004453	0.999949	
3942														0.131298	0.048002	9.770902	-0.590463	-0.807015	-0.009010	0.807014	-0.590514	0.004594	-0.009028	-0.004558	0.999949	
3943														-0.227385	-0.114371	9.748203	-0.584612	-0.811263	-0.008995	0.811264	-0.584663	0.004540	-0.008942	-0.004643	0.999949	
3944														-0.242371	-0.034280	9.759661	-0.578392	-0.815709	-0.008998	0.815711	-0.578442	0.004431	-0.008819	-0.004777	0.999950	
3945														-0.139044	-0.174150	9.767845	-0.572061	-0.820161	-0.009060	0.820165	-0.572111	0.004267	-0.008683	-0.004990	0.999950	
3946														0.010924	-0.027273	9.783423	-0.565666	-0.824584	-0.009116	0.824590	-0.565716	0.004152	-0.008581	-0.005168	0.999950	
3947														0.072765	0.177096	9.779400	-0.558365	-0.829546	-0.009065	0.829553	-0.558414	0.004029	-0.008404	-0.005270	0.999951	
3948														0.005543	-0.000591	9.771289	-0.550718	-0.834592	-0.009047	0.834600	-0.550766	0.003995	-0.008317	-0.005350	0.999951	
3949														-0.061679	-0.178277	9.763177	-0.543070	-0.839639	-0.009030	0.839647	-0.543118	0.003961	-0.008230	-0.005430	0.999951	
3950														-0.062628	-0.099334	9.767990	-0.535241	-0.844651	-0.009037	0.844661	-0.535288	0.003875	-0.008111	-0.005559	0.999952	
3951														-0.015073	-0.110073	9.755392	-0.527895	-0.849261	-0.009068	0.849272	-0.527942	0.003744	-0.007967	-0.005725	0.999952	
3952														-0.079471	0.012267	9.778574	-0.521723	-0.853067	-0.009066	0.853079	-0.521769	0.003647	-0.007841	-0.005831	0.999952	
3953														-0.504517	0.150473	9.757995	-0.515139	-0.857058	-0.009155	0.857072	-0.515185	0.003555	-0.007763	-0.006015	0.999952	
3954														-0.480008	0.108398	9.760098	-0.507433	-0.861596	-0.009140	0.861611	-0.507478	0.003411	-0.007576	-0.006143	0.999952	
3955														-0.455498	0.066323	9.762201	-0.499728	-0.866135	-0.009124	0.866151	-0.499771	0.003267	-0.007389	-0.006271	0.999953	
3956														-0.491843	0.129036	9.744229	-0.491156	-0.871024	-0.009144	0.871042	-0.491199	0.003181	-0.007262	-0.006402	0.999953	
3957														-0.565474	0.112686	9.771020	-0.482561	-0.875815	-0.009127	0.875834	-0.482603	0.003038	-0.007066	-0.006527	0.999954	
3958														-0.307930	0.059534	9.723943	-0.475165	-0.879850	-0.009059	0.879870	-0.475206	0.002957	-0.006907	-0.006566	0.999955	
3959														-0.329673	0.117733	9.765476	-0.467334	-0.884035	-0.009015	0.884054	-0.467375	0.003001	-0.006866	-0.006567	0.999955	
3960														0.059425	0.155538	9.838711	-0.462540	-0.886553	-0.008995	0.886572	-0.462580	0.003002	-0.006822	-0.006586	0.999955	
3961														-0.756227	0.106966	9.733901	-0.456883	-0.889482	-0.008918	0.889500	-0.456924	0.003087	-0.006820	-0.006522	0.999955	
3962														-0.101517	0.085596	9.746175	-0.448282	-0.893846	-0.009060	0.893866	-0.448323	0.003021	-0.006762	-0.006744	0.999954	
3963														0.462425	-0.124445	9.759909	-0.439767	-0.898066	-0.009015	0.898087	-0.439808	0.003039	-0.006694	-0.006760	0.999955	
3964														0.026888	-0.053302	9.769678	-0.432795	-0.901447	-0.008991	0.901468	-0.432835	0.003068	-0.006657	-0.006777	0.999955	
3965														-0.027920	0.083970	9.807985	-0.426008	-0.904675	-0.008957	0.904694	-0.426049	0.003178	-0.006691	-0.006750	0.999955	
3966														0.301615	-0.120590	9.738835	-0.419419	-0.907749	-0.008926	0.907768	-0.419460	0.003179	-0.006630	-0.006769	0.999955	
3967														0.032467	-0.115938	9.742240	-0.413528	-0.910447	-0.008940	0.910467	-0.413569	0.003254	-0.006660	-0.006794	0.999955	
3968														-0.387725	-0.163117	9.828495	-0.407351	-0.913228	-0.008891	0.913248	-0.407392	0.003276	-0.006613	-0.006785	0.999955	
3969														-0.483599	0.173281	9.757489	-0.401064	-0.916007	-0.008943	0.916027	-0.401104	0.003219	-0.006535	-0.006901	0.999955	
3970														0.153105	0.185935	9.754635	-0.401325	-0.915892	-0.008915	0.915912	-0.401366	0.003238	-0.006544	-0.006866	0.999955	
3971														-1.114455	0.500058	9.810927	-0.396789	-0.917867	-0.008910	0.917887	-0.396829	0.003266	-0.006533	-0.006882	0.999955	
3972														0.404393	0.027487	9.725243	-0.388006	-0.921614	-0.008920	0.921634	-0.388046	0.003309	-0.006511	-0.006937	0.999955	
3973														1.245818	-0.521486	9.715609	-0.381800	-0.924202	-0.008862	0.924222	-0.381841	0.003345	-0.006476	-0.006914	0.999955	
3974														1.305496	-0.517022	9.791618	-0.376350	-0.926436	-0.008809	0.926455	-0.376390	0.003465	-0.006526	-0.006857	0.999955	
3975														0.173426	-0.329324	9.738825	-0.369764	-0.929084	-0.008790	0.929102	-0.369806	0.003677	-0.006667	-0.006807	0.999955	
3976														-0.377334	-0.254755	9.786582	-0.363719	-0.931468	-0.008744	0.931486	-0.363760	0.003590	-0.006524	-0.006839	0.999955	
3977														-0.278242	-0.150432	9.817718	-0.358316	-0.933559	-0.008737	0.933577	-0.358358	0.003667	-0.006555	-0.006843	0.999955	
3978														-0.422056	-0.041103	9.750216	-0.353750	-0.935298	-0.008845	0.935318	-0.353791	0.003552	-0.006452	-0.007017	0.999955	
3979														-0.217602	0.058545	9.771478	-0.350277	-0.936605	-0.008796	0.936625	-0.350317	0.003445	-0.006308	-0.007032	0.999955	
3980														-0.755305	0.485570	9.782388	-0.349636	-0.936844	-0.008846	0.936864	-0.349676	0.003419	-0.006296	-0.007092	0.999955	
3981														-0.241165	0.173348	9.767860	-0.341743	-0.939752	-0.008839	0.939772	-0.341783	0.003477	-0.006289	-0.007118	0.999955	
3982														0.598620	-0.235904	9.725853	-0.334106	-0.942494	-0.008804	0.942515	-0.334146	0.003533	-0.006271	-0.007118	0.999955	
3983														0.318791	-0.096587	9.739855	-0.327124	-0.944940	-0.008792	0.944961	-0.327164	0.003502	-0.006185	-0.007163	0.999955	
3984														0.039867	-0.145926	9.787331	-0.320848	-0.947091	-0.008731	0.947110	-0.320888	0.003706	-0.006311	-0.007081	0.999955	
3985														-0.140918	-0.244598	9.766726	-0.314286	-0.949287	-0.008859	0.949308	-0.314327	0.003600	-0.006202	-0.007279	0.999954	
3986														-0.160261	-0.270339	9.751610	-0.307763	-0.951422	-0.008869	0.951443	-0.307803	0.003561	-0.006118	-0.007342	0.999954	
3987														-0.008715	-0.009245	9.752870	-0.302274	-0.953179	-0.008977	0.953201	-0.302315	0.003556	-0.006104	-0.007482	0.999953	
3988														-0.214098	0.351104	9.765586	-0.297371	-0.954720	-0.008997	0.954743	-0.297411	0.003464	-0.005982	-0.007560	0.999954	
3989														-0.096042	0.287842	9.772219	-0.291097	-0.956652	-0.008950	0.956675	-0.291136	0.003437	-0.005894	-0.007562	0.999954	
3990														0.121304	-0.042577	9.730014	-0.285382	-0.958372	-0.008982	0.958396	-0.285421	0.003402	-0.005824	-0.007637	0.999954	
3991														0.123157	-0.329458	9.735796	-0.280331	-0.959861	-0.009036	0.959885	-0.280371	0.003468	-0.005862	-0.007701	0.999953	
3992														0.075095	-0.330907	9.806934	-0.275903	-0.961142	-0.009088	0.961168	-0.275943	0.003429	-0.005804	-0.007789	0.999953	
3993														-0.075048	-0.157884	9.752731	-0.271905	-0.962281	-0.009118	0.962306	-0.271945	0.003518	-0.005864	-0.007817	0.999952	
3994														-0.371299	0.049388	9.749910	-0.268394	-0.963266	-0.009129	0.963292	-0.268434	0.003417	-0.005742	-0.007877	0.999952	
3995														-0.388491	0.037220	9.749338	-0.264184	-0.964429	-0.009133	0.964456	-0.264223	0.003378	-0.005671	-0.007916	0.999953	
3996														-0.115226	-0.147687	9.765252	-0.259421	-0.965721	-0.009117	0.965748	-0.259459	0.003295	-0.005547	-0.007950	0.999953	
3997														0.083067	0.122660	9.754526	-0.255882	-0.966665	-0.009154	0.966692	-0.255921	0.003289	-0.005522	-0.008007	0.999953	
3998														0.016100	0.033240	9.767857	-0.252462	-0.967564	-0.009149	0.967590	-0.252502	0.003422	-0.005621	-0.007988	0.999952	
3999														-0.070353	-0.082165	9.766087	-0.249814	-0.968251	-0.009150	0.968277	-0.249854	0.003472	-0.005648	-0.007993	0.999952	
4000														-0.059829	-0.099074	9.781555	-0.247712	-0.968790	-0.009178	0.968817	-0.247752	0.003457	-0.005623	-0.008035	0.999952	
4001														0.158628	0.004183	9.760363	-0.246146	-0.969190	-0.009121	0.969217	-0.246185	0.003446	-0.005585	-0.007992	0.999952	
4002														-0.185438	-0.206593	9.733772	-0.246148	-0.969188	-0.009223	0.969216	-0.246188	0.003511	-0.005674	-0.008075	0.999951	
4003														-0.408275	-0.113938	9.780470	-0.245570	-0.969335	-0.009267	0.969362	-0.245610	0.003504	-0.005673	-0.008123	0.999951	
4004														-0.154587	-0.332861	9.781497	-0.245163	-0.969437	-0.009307	0.969466	-0.245203	0.003433	-0.005610	-0.008181	0.999951	
4005														-0.003686	-0.125444	9.755283	-0.244896	-0.969504	-0.009341	0.969533	-0.244936	0.003375	-0.005560	-0.008230	0.999951	
4006														-0.062920	-0.052819	9.751223	-0.244833	-0.969520	-0.009369	0.969549	-0.244873	0.003386	-0.005577	-0.008255	0.999950	
4007														-0.082516	-0.063108	9.794523	-0.244876	-0.969509	-0.009411	0.969538	-0.244916	0.003405	-0.005606	-0.008290	0.999950	
4008														-0.107716	-0.042740	9.778339	-0.244937	-0.969493	-0.009432	0.969523	-0.244977	0.003428	-0.005634	-0.008305	0.999950	
4009														-0.091390	-0.046291	9.735163	-0.244961	-0.969487	-0.009455	0.969517	-0.245002	0.003395	-0.005608	-0.008336	0.999950	
4010														-0.081638	-0.062964	9.765263	-0.244999	-0.969477	-0.009513	0.969507	-0.245040	0.003447	-0.005672	-0.008379	0.999949	
4011														-0.102171	-0.013245	9.778088	-0.245086	-0.969455	-0.009490	0.969485	-0.245127	0.003455	-0.005676	-0.008353	0.999949	
4012														-0.093276	-0.044553	9.764425	-0.245200	-0.969426	-0.009488	0.969456	-0.245242	0.003459	-0.005680	-0.008350	0.999949	
4013														-0.080253	-0.046504	9.794405	-0.245339	-0.969391	-0.009483	0.969421	-0.245380	0.003443	-0.005664	-0.008349	0.999949	
4014														-0.087852	-0.089638	9.765528	-0.245551	-0.969337	-0.009502	0.969367	-0.245592	0.003424	-0.005652	-0.008371	0.999949	
4015														-0.078935	-0.121309	9.751871	-0.246015	-0.969219	-0.009531	0.969249	-0.246057	0.003426	-0.005666	-0.008395	0.999949	
4016														-0.143520	-0.212438	9.750609	-0.246487	-0.969098	-0.009608	0.969129	-0.246529	0.003465	-0.005727	-0.008457	0.999948	
4017														-0.127502	0.008820	9.761894	-0.246024	-0.969216	-0.009644	0.969247	-0.246066	0.003450	-0.005717	-0.008498	0.999948	
4018														-0.204736	-0.004206	9.758571	-0.245899	-0.969248	-0.009572	0.969279	-0.245940	0.003389	-0.005639	-0.008445	0.999948	
4019														-0.145715	-0.075259	9.791948	-0.245908	-0.969246	-0.009531	0.969277	-0.245948	0.003290	-0.005532	-0.008429	0.999949	
4020														0.124158	0.122366	9.727317	-0.246622	-0.969065	-0.009529	0.969096	-0.246663	0.003342	-0.005589	-0.008410	0.999949	
4021														-0.011226	-0.012956	9.753007	-0.246787	-0.969023	-0.009534	0.969053	-0.246829	0.003389	-0.005638	-0.008403	0.999949	
4022														-0.165336	-0.099611	9.762240	-0.246372	-0.969128	-0.009544	0.969159	-0.246414	0.003411	-0.005657	-0.008409	0.999949	
4023														-0.145462	-0.073412	9.777328	-0.245321	-0.969395	-0.009549	0.969426	-0.245361	0.003363	-0.005603	-0.008432	0.999949	
4024														-0.094689	0.021170	9.763204	-0.244475	-0.969609	-0.009498	0.969640	-0.244515	0.003346	-0.005567	-0.008392	0.999949	
4025														-0.114583	-0.003559	9.762761	-0.244052	-0.969716	-0.009422	0.969746	-0.244092	0.003303	-0.005503	-0.008331	0.999950	
4026														0.016657	0.044952	9.738548	-0.244030	-0.969723	-0.009340	0.969752	-0.244069	0.003307	-0.005486	-0.008250	0.999951	
4027														-0.064915	-0.056582	9.751420	-0.244009	-0.969728	-0.009307	0.969758	-0.244048	0.003271	-0.005443	-0.008227	0.999951	
4028														-0.064641	-0.055868	9.751426	-0.243718	-0.969802	-0.009282	0.969831	-0.243757	0.003265	-0.005429	-0.008206	0.999952	
4029														-0.117696	-0.088599	9.778969	-0.243507	-0.969855	-0.009226	0.969884	-0.243545	0.003256	-0.005405	-0.008155	0.999952	
4030														-0.090683	-0.033410	9.764494	-0.243744	-0.969796	-0.009163	0.969824	-0.243782	0.003270	-0.005405	-0.008089	0.999953	
4031														-0.055378	-0.009956	9.751011	-0.244098	-0.969707	-0.009133	0.969735	-0.244136	0.003269	-0.005399	-0.008059	0.999953	
4032														-0.090550	-0.031679	9.764501	-0.244513	-0.969603	-0.009114	0.969631	-0.244551	0.003256	-0.005386	-0.008041	0.999953	
4033														-0.089522	-0.030728	9.749878	-0.245008	-0.969480	-0.008975	0.969506	-0.245044	0.003229	-0.005330	-0.007910	0.999955	
4034														-0.022523	0.001591	9.752302	-0.244914	-0.969503	-0.008943	0.969531	-0.244950	0.003140	-0.005235	-0.007902	0.999955	
4035														-0.068453	-0.003056	9.764940	-0.244936	-0.969498	-0.008941	0.969525	-0.244972	0.003090	-0.005186	-0.007912	0.999955	
4036														-0.062394	-0.048953	9.751478	-0.244984	-0.969486	-0.008966	0.969513	-0.245020	0.003134	-0.005235	-0.007924	0.999955	
4037														-0.059721	-0.034087	9.751327	-0.245031	-0.969474	-0.008952	0.969501	-0.245067	0.003151	-0.005248	-0.007907	0.999955	
4038														-0.078344	-0.044278	9.780026	-0.245077	-0.969462	-0.008945	0.969490	-0.245113	0.003134	-0.005231	-0.007904	0.999955	
4039														-0.074529	-0.029704	9.765247	-0.245147	-0.969445	-0.008939	0.969472	-0.245183	0.003117	-0.005214	-0.007902	0.999955	
4040														-0.077539	-0.043496	9.765402	-0.245156	-0.969442	-0.008937	0.969469	-0.245192	0.003143	-0.005238	-0.007894	0.999955	
4041														-0.075331	-0.028351	9.779879	-0.245204	-0.969430	-0.008942	0.969457	-0.245240	0.003135	-0.005232	-0.007900	0.999955	
4042														-0.092446	-0.039101	9.779322	-0.245228	-0.969425	-0.008901	0.969451	-0.245263	0.003113	-0.005201	-0.007865	0.999956	
4043														-0.088661	-0.024260	9.764539	-0.245262	-0.969416	-0.008876	0.969443	-0.245298	0.003123	-0.005204	-0.007839	0.999956	
4044														-0.090326	-0.038653	9.735438	-0.245274	-0.969413	-0.008892	0.969440	-0.245310	0.003126	-0.005211	-0.007854	0.999956	
4045														-0.063100	-0.043459	9.766133	-0.245312	-0.969404	-0.008879	0.969430	-0.245347	0.003143	-0.005225	-0.007837	0.999956	
4046														-0.077549	-0.039735	9.765418	-0.245334	-0.969398	-0.008846	0.969425	-0.245369	0.003163	-0.005237	-0.007799	0.999956	
4047														-0.074773	-0.024768	9.765258	-0.245316	-0.969403	-0.008866	0.969429	-0.245352	0.003190	-0.005268	-0.007813	0.999956	
4048														-0.094958	-0.049971	9.764866	-0.245419	-0.969377	-0.008834	0.969403	-0.245454	0.003153	-0.005224	-0.007790	0.999956	
4049														-0.076204	-0.038598	9.736165	-0.245445	-0.969370	-0.008842	0.969396	-0.245480	0.003167	-0.005240	-0.007794	0.999956	
4050														-0.078261	-0.037240	9.780056	-0.245482	-0.969361	-0.008847	0.969387	-0.245517	0.003161	-0.005236	-0.007801	0.999956	
4051														-0.075122	-0.022259	9.779896	-0.245531	-0.969349	-0.008806	0.969375	-0.245566	0.003136	-0.005202	-0.007766	0.999956	
4052														-0.075874	-0.036784	9.736175	-0.245560	-0.969341	-0.008789	0.969367	-0.245595	0.003134	-0.005196	-0.007751	0.999956	
4053														-0.077804	-0.035219	9.780068	-0.245587	-0.969335	-0.008773	0.969361	-0.245622	0.003129	-0.005188	-0.007736	0.999957	
4054														-0.073423	-0.020737	9.750644	-0.245619	-0.969327	-0.008734	0.969353	-0.245654	0.003128	-0.005177	-0.007698	0.999957	
4055														-0.090559	-0.031349	9.750097	-0.245650	-0.969320	-0.008705	0.969345	-0.245684	0.003114	-0.005157	-0.007673	0.999957	
4056														-0.082504	-0.062051	9.765789	-0.245709	-0.969305	-0.008695	0.969330	-0.245744	0.003077	-0.005120	-0.007672	0.999957	
4057														-0.087211	-0.015900	9.749934	-0.245712	-0.969304	-0.008703	0.969329	-0.245747	0.003089	-0.005133	-0.007677	0.999957	
4058														-0.075862	-0.032729	9.750823	-0.245698	-0.969307	-0.008707	0.969333	-0.245733	0.003080	-0.005125	-0.007683	0.999957	
4059														-0.094557	-0.042911	9.779538	-0.245750	-0.969294	-0.008684	0.969320	-0.245784	0.003109	-0.005148	-0.007654	0.999957	
4060														-0.074426	-0.016535	9.779913	-0.245784	-0.969286	-0.008689	0.969311	-0.245819	0.003105	-0.005145	-0.007659	0.999957	
4061														-0.076734	-0.030646	9.765457	-0.245818	-0.969277	-0.008674	0.969302	-0.245852	0.003121	-0.005158	-0.007640	0.999958	
4062														-0.063047	-0.032658	9.780808	-0.245837	-0.969272	-0.008663	0.969298	-0.245871	0.003107	-0.005141	-0.007633	0.999958	
4063														-0.077326	-0.029298	9.780091	-0.245892	-0.969258	-0.008684	0.969284	-0.245926	0.003111	-0.005151	-0.007653	0.999957	
4064														-0.090939	-0.026258	9.764744	-0.245944	-0.969245	-0.008674	0.969271	-0.245978	0.003093	-0.005131	-0.007647	0.999958	
4065														-0.062035	-0.031524	9.766185	-0.245956	-0.969242	-0.008653	0.969267	-0.245990	0.003067	-0.005101	-0.007632	0.999958	
4066														-0.067250	-0.037452	9.769753	-0.245985	-0.969235	-0.008651	0.969260	-0.246019	0.003083	-0.005116	-0.007626	0.999958	
4067														-0.072466	-0.043381	9.773321	-0.246014	-0.969228	-0.008648	0.969253	-0.246048	0.003099	-0.005132	-0.007620	0.999958	
4068														-0.076472	-0.026845	9.765471	-0.246025	-0.969225	-0.008629	0.969250	-0.246058	0.003098	-0.005126	-0.007601	0.999958	
4069														-0.049975	-0.046699	9.752463	-0.246079	-0.969212	-0.008613	0.969236	-0.246113	0.003093	-0.005117	-0.007587	0.999958	
4070														-0.076279	-0.025716	9.765475	-0.246118	-0.969202	-0.008626	0.969227	-0.246151	0.003072	-0.005100	-0.007605	0.999958	
4071														-0.094098	-0.036356	9.779569	-0.246206	-0.969179	-0.008611	0.969204	-0.246240	0.003068	-0.005094	-0.007591	0.999958	
4072														-0.064065	-0.042227	9.751752	-0.246240	-0.969171	-0.008606	0.969196	-0.246273	0.003073	-0.005097	-0.007584	0.999958	
4073														-0.092729	-0.035914	9.750314	-0.246250	-0.969168	-0.008609	0.969193	-0.246284	0.003066	-0.005091	-0.007589	0.999958	
4074														-0.079796	-0.037939	9.780294	-0.246299	-0.969155	-0.008660	0.969180	-0.246333	0.003077	-0.005115	-0.007635	0.999958	
4075														-0.076880	-0.023199	9.780111	-0.246308	-0.969153	-0.008629	0.969178	-0.246342	0.003066	-0.005097	-0.007608	0.999958	
4076														-0.079718	-0.036907	9.780298	-0.246347	-0.969143	-0.008624	0.969168	-0.246381	0.003072	-0.005102	-0.007601	0.999958	
4077														-0.061209	-0.025497	9.751575	-0.246379	-0.969135	-0.008610	0.969160	-0.246413	0.003088	-0.005115	-0.007584	0.999958	
4078														-0.079158	-0.035967	9.765673	-0.246402	-0.969130	-0.008594	0.969154	-0.246436	0.003085	-0.005108	-0.007569	0.999958	
4079														-0.079793	-0.034934	9.780305	-0.246417	-0.969126	-0.008571	0.969150	-0.246451	0.003092	-0.005108	-0.007545	0.999958	
4080														-0.076344	-0.020239	9.765487	-0.246445	-0.969119	-0.008570	0.969143	-0.246479	0.003122	-0.005137	-0.007536	0.999958	
4081														-0.082232	-0.048236	9.765869	-0.246449	-0.969118	-0.008533	0.969142	-0.246483	0.003121	-0.005128	-0.007501	0.999959	
4082														-0.093681	-0.030225	9.764959	-0.246499	-0.969106	-0.008518	0.969129	-0.246533	0.003138	-0.005141	-0.007482	0.999959	
4083														-0.065819	-0.035221	9.781033	-0.246503	-0.969104	-0.008542	0.969128	-0.246537	0.003149	-0.005157	-0.007502	0.999959	
4084														-0.064521	-0.035432	9.751776	-0.246500	-0.969105	-0.008525	0.969129	-0.246534	0.003147	-0.005152	-0.007486	0.999959	
4085														-0.065064	-0.034510	9.766408	-0.246546	-0.969094	-0.008518	0.969118	-0.246579	0.003131	-0.005135	-0.007483	0.999959	
4086														-0.078575	-0.031531	9.751059	-0.246566	-0.969088	-0.008530	0.969112	-0.246600	0.003113	-0.005120	-0.007499	0.999959	
4087														-0.081297	-0.045357	9.751257	-0.246570	-0.969088	-0.008503	0.969112	-0.246603	0.003101	-0.005102	-0.007476	0.999959	
4088														-0.064654	-0.033004	9.766416	-0.246588	-0.969083	-0.008518	0.969107	-0.246621	0.003099	-0.005104	-0.007491	0.999959	
4089														-0.080551	-0.044761	9.736633	-0.246619	-0.969075	-0.008527	0.969099	-0.246653	0.003096	-0.005103	-0.007500	0.999959	
4090														-0.081715	-0.043560	9.765895	-0.246637	-0.969071	-0.008506	0.969095	-0.246670	0.003067	-0.005071	-0.007486	0.999959	
4091														-0.064506	-0.031423	9.766422	-0.246704	-0.969054	-0.008495	0.969078	-0.246737	0.003105	-0.005105	-0.007466	0.999959	
4092														-0.078362	-0.028162	9.751071	-0.246747	-0.969043	-0.008464	0.969067	-0.246780	0.003109	-0.005101	-0.007435	0.999959	
4093														-0.077822	-0.027834	9.736443	-0.246766	-0.969038	-0.008459	0.969062	-0.246799	0.003138	-0.005128	-0.007423	0.999959	
4094														-0.069348	-0.043186	9.795883	-0.246796	-0.969031	-0.008470	0.969054	-0.246829	0.003178	-0.005170	-0.007423	0.999959	
4095														-0.083325	-0.040127	9.780530	-0.246791	-0.969032	-0.008466	0.969055	-0.246825	0.003207	-0.005197	-0.007412	0.999959	
4096														-0.078244	-0.026152	9.736444	-0.246818	-0.969025	-0.008425	0.969048	-0.246852	0.003152	-0.005134	-0.007387	0.999960	
4097														-0.067888	-0.042120	9.766634	-0.246836	-0.969020	-0.008436	0.969043	-0.246870	0.003168	-0.005152	-0.007393	0.999959	
4098														-0.068605	-0.041331	9.781264	-0.246878	-0.969010	-0.008442	0.969033	-0.246912	0.003161	-0.005148	-0.007400	0.999959	
4099														-0.107427	-0.018672	9.749628	-0.246892	-0.969006	-0.008454	0.969029	-0.246925	0.003161	-0.005151	-0.007412	0.999959	
4100														-0.067976	-0.040833	9.766638	-0.246940	-0.968994	-0.008450	0.969017	-0.246973	0.003160	-0.005149	-0.007408	0.999959	
4101														-0.067446	-0.040615	9.752011	-0.246990	-0.968981	-0.008449	0.969004	-0.247024	0.003185	-0.005174	-0.007401	0.999959	
4102														-0.067693	-0.040045	9.752011	-0.247043	-0.968968	-0.008448	0.968991	-0.247077	0.003210	-0.005198	-0.007393	0.999959	
4103														-0.071105	-0.026813	9.560898	-0.247067	-0.968961	-0.008485	0.968984	-0.247102	0.003319	-0.005313	-0.007402	0.999958	
4104														-0.060923	-0.039388	9.884390	-0.247092	-0.968954	-0.008616	0.968977	-0.247128	0.003348	-0.005373	-0.007521	0.999957	
4105														-0.148606	-0.048138	10.100597	-0.247124	-0.968947	-0.008487	0.968969	-0.247158	0.003339	-0.005333	-0.007398	0.999958	
4106														-0.104445	-0.006006	9.397586	-0.247185	-0.968932	-0.008427	0.968954	-0.247219	0.003318	-0.005298	-0.007345	0.999959	
4107														0.018242	-0.055218	9.727128	-0.247160	-0.968937	-0.008524	0.968960	-0.247195	0.003392	-0.005394	-0.007421	0.999958	
4108														-0.034081	-0.042056	9.915113	-0.247199	-0.968927	-0.008525	0.968950	-0.247234	0.003408	-0.005410	-0.007418	0.999958	
4109														-0.167662	-0.018302	9.688382	-0.247211	-0.968924	-0.008523	0.968947	-0.247247	0.003434	-0.005434	-0.007410	0.999958	
4110														-0.077912	-0.048313	9.854620	-0.247230	-0.968919	-0.008560	0.968941	-0.247266	0.003489	-0.005497	-0.007432	0.999957	
4111														0.029983	-0.055847	9.757127	-0.247280	-0.968906	-0.008545	0.968929	-0.247316	0.003464	-0.005469	-0.007423	0.999957	
4112														-0.125272	-0.025478	9.690568	-0.247313	-0.968898	-0.008567	0.968920	-0.247350	0.003511	-0.005521	-0.007432	0.999957	
4113														-0.146863	-0.034587	9.777817	-0.247363	-0.968885	-0.008600	0.968907	-0.247400	0.003521	-0.005539	-0.007462	0.999957	
4114														-0.078680	-0.062357	9.796323	-0.247394	-0.968877	-0.008584	0.968899	-0.247431	0.003517	-0.005532	-0.007447	0.999957	
4115														-0.038802	-0.025836	9.738632	-0.247395	-0.968876	-0.008601	0.968899	-0.247432	0.003542	-0.005560	-0.007457	0.999957	
4116														-0.086272	-0.030574	9.765905	-0.247403	-0.968874	-0.008605	0.968897	-0.247440	0.003561	-0.005579	-0.007456	0.999957	
4117														-0.078249	-0.045500	9.839998	-0.247447	-0.968863	-0.008596	0.968885	-0.247484	0.003567	-0.005584	-0.007446	0.999957	
4118														-0.059856	-0.049803	9.752964	-0.247473	-0.968857	-0.008568	0.968879	-0.247510	0.003576	-0.005586	-0.007417	0.999957	
4119														-0.072125	-0.031639	9.766643	-0.247509	-0.968848	-0.008578	0.968869	-0.247546	0.003593	-0.005605	-0.007421	0.999957	
4120														-0.102867	-0.024522	9.809061	-0.247525	-0.968843	-0.008590	0.968865	-0.247563	0.003577	-0.005592	-0.007437	0.999957	
4121														-0.089184	-0.042097	9.766133	-0.247555	-0.968836	-0.008529	0.968858	-0.247592	0.003579	-0.005580	-0.007377	0.999957	
4122														-0.084232	-0.028158	9.722031	-0.247578	-0.968830	-0.008555	0.968852	-0.247615	0.003570	-0.005577	-0.007404	0.999957	
4123														-0.071912	-0.029520	9.766651	-0.247658	-0.968810	-0.008548	0.968832	-0.247695	0.003572	-0.005578	-0.007397	0.999957	
4124														-0.089763	-0.040110	9.780769	-0.247697	-0.968800	-0.008531	0.968821	-0.247734	0.003565	-0.005567	-0.007382	0.999957	
4125														-0.074764	-0.042740	9.766877	-0.247724	-0.968793	-0.008537	0.968814	-0.247761	0.003580	-0.005583	-0.007384	0.999957	
4126														-0.075524	-0.041768	9.781508	-0.247750	-0.968787	-0.008511	0.968808	-0.247787	0.003589	-0.005586	-0.007356	0.999957	
4127														-0.059847	-0.044757	9.752988	-0.247763	-0.968783	-0.008526	0.968805	-0.247800	0.003595	-0.005596	-0.007369	0.999957	
4128														-0.074831	-0.041244	9.766883	-0.247794	-0.968775	-0.008541	0.968797	-0.247831	0.003575	-0.005580	-0.007388	0.999957	
4129														-0.071218	-0.041541	9.767069	-0.247842	-0.968763	-0.008525	0.968784	-0.247879	0.003581	-0.005582	-0.007371	0.999957	
4130														-0.067605	-0.041837	9.767255	-0.247889	-0.968751	-0.008509	0.968772	-0.247926	0.003587	-0.005584	-0.007354	0.999957	
4131														-0.085633	-0.022738	9.751299	-0.247883	-0.968753	-0.008506	0.968774	-0.247920	0.003583	-0.005580	-0.007352	0.999957	
4132														-0.087823	-0.037027	9.736900	-0.247904	-0.968747	-0.008510	0.968768	-0.247941	0.003599	-0.005597	-0.007352	0.999957	
4133														-0.076225	-0.037926	9.796150	-0.247951	-0.968735	-0.008506	0.968756	-0.247988	0.003593	-0.005591	-0.007350	0.999957	
4134														-0.089942	-0.034934	9.780787	-0.247973	-0.968730	-0.008499	0.968751	-0.248010	0.003612	-0.005607	-0.007338	0.999957	
4135														-0.090025	-0.034325	9.780789	-0.247993	-0.968725	-0.008492	0.968746	-0.248030	0.003620	-0.005613	-0.007329	0.999957	
4136														-0.077728	-0.051226	9.767132	-0.248060	-0.968708	-0.008458	0.968729	-0.248097	0.003609	-0.005594	-0.007298	0.999958	
4137														-0.089918	-0.032978	9.780794	-0.248072	-0.968705	-0.008438	0.968725	-0.248109	0.003626	-0.005606	-0.007275	0.999958	
4138														-0.074998	-0.035375	9.766905	-0.248087	-0.968701	-0.008405	0.968721	-0.248124	0.003650	-0.005621	-0.007236	0.999958	
4139														-0.088598	-0.032301	9.751543	-0.248082	-0.968703	-0.008404	0.968723	-0.248118	0.003626	-0.005598	-0.007242	0.999958	
4140														-0.071941	-0.019923	9.766675	-0.248109	-0.968696	-0.008405	0.968716	-0.248146	0.003620	-0.005592	-0.007244	0.999958	
4141														-0.076144	-0.048980	9.737893	-0.248136	-0.968689	-0.008403	0.968709	-0.248173	0.003613	-0.005586	-0.007243	0.999958	
4142														-0.077545	-0.047787	9.767151	-0.248168	-0.968681	-0.008412	0.968701	-0.248204	0.003627	-0.005601	-0.007249	0.999958	
4143														-0.075497	-0.032424	9.781543	-0.248141	-0.968688	-0.008382	0.968708	-0.248178	0.003640	-0.005606	-0.007217	0.999958	
4144														-0.073486	-0.032892	9.737662	-0.248200	-0.968673	-0.008379	0.968693	-0.248237	0.003647	-0.005613	-0.007211	0.999958	
4145														-0.063273	-0.048810	9.767897	-0.248195	-0.968674	-0.008384	0.968694	-0.248232	0.003643	-0.005611	-0.007217	0.999958	
4146														-0.090567	-0.043449	9.737168	-0.248214	-0.968669	-0.008368	0.968689	-0.248250	0.003642	-0.005605	-0.007202	0.999958	
4147														-0.105436	-0.039760	9.751061	-0.248253	-0.968659	-0.008365	0.968679	-0.248289	0.003616	-0.005580	-0.007205	0.999958	
4148														-0.091119	-0.042100	9.751801	-0.248280	-0.968652	-0.008376	0.968672	-0.248317	0.003652	-0.005617	-0.007207	0.999958	
4149														-0.059737	-0.032722	9.753037	-0.248302	-0.968647	-0.008355	0.968666	-0.248339	0.003650	-0.005610	-0.007187	0.999958	
4150														-0.077504	-0.043398	9.767172	-0.248305	-0.968646	-0.008359	0.968666	-0.248342	0.003649	-0.005611	-0.007192	0.999958	
4151														-0.073267	-0.013389	9.795941	-0.248342	-0.968636	-0.008356	0.968656	-0.248379	0.003657	-0.005617	-0.007186	0.999958	
4152														-0.062485	-0.045510	9.753287	-0.248379	-0.968627	-0.008355	0.968647	-0.248416	0.003659	-0.005620	-0.007184	0.999958	
4153														-0.089205	-0.024801	9.766192	-0.248381	-0.968626	-0.008384	0.968646	-0.248418	0.003672	-0.005639	-0.007209	0.999958	
4154														-0.064007	-0.044103	9.782545	-0.248412	-0.968618	-0.008409	0.968638	-0.248449	0.003661	-0.005635	-0.007235	0.999958	
4155														-0.078992	-0.040513	9.796435	-0.248442	-0.968611	-0.008389	0.968630	-0.248478	0.003662	-0.005631	-0.007216	0.999958	
4156														-0.076933	-0.041063	9.752555	-0.248464	-0.968605	-0.008385	0.968625	-0.248501	0.003669	-0.005637	-0.007210	0.999958	
4157														-0.076873	-0.040626	9.752557	-0.248486	-0.968599	-0.008401	0.968619	-0.248523	0.003651	-0.005624	-0.007230	0.999958	
4158														-0.076752	-0.024272	9.810821	-0.248531	-0.968587	-0.008395	0.968608	-0.248568	0.003657	-0.005629	-0.007223	0.999958	
4159														-0.091272	-0.036922	9.751821	-0.248501	-0.968595	-0.008403	0.968615	-0.248538	0.003675	-0.005648	-0.007226	0.999958	
4160														-0.079083	-0.053841	9.738185	-0.248540	-0.968586	-0.008375	0.968605	-0.248577	0.003686	-0.005653	-0.007196	0.999958	
4161														-0.063844	-0.040369	9.782562	-0.248583	-0.968575	-0.008351	0.968594	-0.248620	0.003663	-0.005624	-0.007178	0.999958	
4162														-0.061118	-0.025539	9.782311	-0.248605	-0.968569	-0.008382	0.968588	-0.248642	0.003697	-0.005665	-0.007200	0.999958	
4163														-0.092095	-0.034336	9.766455	-0.248607	-0.968568	-0.008360	0.968588	-0.248644	0.003695	-0.005657	-0.007179	0.999958	
4164														-0.092014	-0.033689	9.766458	-0.248620	-0.968565	-0.008343	0.968585	-0.248657	0.003695	-0.005653	-0.007162	0.999958	
4165														-0.092579	-0.032817	9.781088	-0.248665	-0.968553	-0.008359	0.968573	-0.248702	0.003676	-0.005639	-0.007182	0.999958	
4166														-0.094606	-0.047154	9.766718	-0.248659	-0.968555	-0.008349	0.968575	-0.248696	0.003685	-0.005646	-0.007170	0.999958	
4167														-0.074731	-0.020480	9.766950	-0.248684	-0.968549	-0.008319	0.968568	-0.248721	0.003695	-0.005648	-0.007139	0.999959	
4168														-0.077529	-0.034309	9.767208	-0.248697	-0.968545	-0.008332	0.968565	-0.248734	0.003696	-0.005652	-0.007151	0.999958	
4169														-0.062469	-0.036954	9.753324	-0.248764	-0.968529	-0.008314	0.968548	-0.248800	0.003693	-0.005645	-0.007134	0.999959	
4170														-0.092608	-0.030129	9.781096	-0.248790	-0.968522	-0.008322	0.968541	-0.248827	0.003707	-0.005662	-0.007138	0.999958	
4171														-0.065311	-0.050339	9.753586	-0.248821	-0.968514	-0.008327	0.968533	-0.248858	0.003700	-0.005655	-0.007145	0.999958	
4172														-0.091331	-0.029923	9.751844	-0.248881	-0.968498	-0.008307	0.968517	-0.248918	0.003715	-0.005666	-0.007121	0.999959	
4173														-0.087811	-0.026198	9.766592	-0.248886	-0.968497	-0.008309	0.968516	-0.248923	0.003727	-0.005678	-0.007120	0.999959	
4174														-0.084290	-0.022474	9.781340	-0.248890	-0.968496	-0.008311	0.968515	-0.248927	0.003739	-0.005690	-0.007119	0.999958	
4175														-0.077857	-0.030604	9.767217	-0.248930	-0.968486	-0.008288	0.968505	-0.248967	0.003743	-0.005689	-0.007095	0.999959	
4176														-0.065535	-0.047523	9.753599	-0.248963	-0.968477	-0.008281	0.968496	-0.249000	0.003748	-0.005691	-0.007087	0.999959	
4177														-0.077922	-0.029398	9.767220	-0.249018	-0.968464	-0.008265	0.968482	-0.249054	0.003764	-0.005704	-0.007067	0.999959	
4178														-0.077278	-0.029245	9.752595	-0.249008	-0.968466	-0.008267	0.968485	-0.249045	0.003762	-0.005702	-0.007070	0.999959	
4179														-0.068210	-0.060108	9.753874	-0.249026	-0.968462	-0.008223	0.968480	-0.249062	0.003744	-0.005674	-0.007032	0.999959	
4180														-0.076959	-0.027914	9.752601	-0.249076	-0.968449	-0.008215	0.968467	-0.249112	0.003749	-0.005678	-0.007022	0.999959	
4181														-0.078417	-0.026609	9.781856	-0.249098	-0.968443	-0.008223	0.968462	-0.249134	0.003770	-0.005700	-0.007024	0.999959	
4182														-0.079891	-0.041298	9.752871	-0.249114	-0.968439	-0.008217	0.968457	-0.249150	0.003779	-0.005707	-0.007017	0.999959	
4183														-0.066130	-0.043077	9.768245	-0.249168	-0.968426	-0.008204	0.968444	-0.249204	0.003762	-0.005688	-0.007008	0.999959	
4184														-0.073150	-0.041432	9.764218	-0.249175	-0.968424	-0.008206	0.968442	-0.249211	0.003773	-0.005699	-0.007007	0.999959	
4185														-0.080170	-0.039787	9.760190	-0.249181	-0.968422	-0.008208	0.968440	-0.249218	0.003785	-0.005711	-0.007006	0.999959	
4186														-0.065047	-0.042372	9.738996	-0.249213	-0.968414	-0.008212	0.968432	-0.249250	0.003830	-0.005756	-0.006998	0.999959	
4187														-0.067338	-0.040583	9.782878	-0.249226	-0.968411	-0.008199	0.968428	-0.249263	0.003851	-0.005773	-0.006980	0.999959	
4188														-0.067470	-0.039915	9.782879	-0.249262	-0.968401	-0.008187	0.968419	-0.249299	0.003872	-0.005790	-0.006963	0.999959	
4189														-0.068873	-0.054569	9.753902	-0.249313	-0.968388	-0.008188	0.968406	-0.249350	0.003864	-0.005784	-0.006966	0.999959	
4190														-0.081132	-0.036517	9.767511	-0.249335	-0.968383	-0.008166	0.968400	-0.249371	0.003858	-0.005773	-0.006946	0.999959	
4191														-0.081097	-0.035809	9.767514	-0.249336	-0.968383	-0.008139	0.968400	-0.249373	0.003869	-0.005776	-0.006917	0.999959	
4192														-0.082389	-0.050480	9.738540	-0.249407	-0.968365	-0.008151	0.968382	-0.249443	0.003849	-0.005761	-0.006933	0.999959	
4193														-0.080328	-0.035083	9.752892	-0.249423	-0.968361	-0.008117	0.968377	-0.249460	0.003874	-0.005776	-0.006894	0.999960	
4194														-0.066546	-0.036626	9.768269	-0.249455	-0.968352	-0.008099	0.968369	-0.249492	0.003853	-0.005751	-0.006882	0.999960	
4195														-0.095232	-0.030676	9.766777	-0.249473	-0.968348	-0.008105	0.968365	-0.249510	0.003865	-0.005765	-0.006884	0.999960	
4196														-0.094641	-0.030586	9.752151	-0.249492	-0.968343	-0.008099	0.968360	-0.249528	0.003873	-0.005771	-0.006876	0.999960	
4197														-0.083171	-0.047063	9.753181	-0.249551	-0.968328	-0.008087	0.968344	-0.249588	0.003915	-0.005809	-0.006854	0.999960	
4198														-0.081954	-0.031177	9.782153	-0.249562	-0.968325	-0.008066	0.968341	-0.249599	0.003916	-0.005805	-0.006833	0.999960	
4199														-0.069434	-0.048150	9.768561	-0.249597	-0.968316	-0.008065	0.968333	-0.249634	0.003892	-0.005782	-0.006838	0.999960	
4200														-0.063985	-0.018763	9.767996	-0.249576	-0.968322	-0.008037	0.968338	-0.249612	0.003925	-0.005806	-0.006803	0.999960	
4201														-0.066870	-0.032425	9.768281	-0.249575	-0.968322	-0.008018	0.968338	-0.249611	0.003945	-0.005822	-0.006779	0.999960	
4202														-0.098477	-0.040872	9.767070	-0.249581	-0.968321	-0.008025	0.968336	-0.249618	0.003965	-0.005842	-0.006782	0.999960	
4203														-0.080860	-0.029135	9.752907	-0.249630	-0.968308	-0.008033	0.968324	-0.249667	0.003983	-0.005863	-0.006784	0.999960	
4204														-0.083616	-0.043087	9.753195	-0.249664	-0.968299	-0.008036	0.968315	-0.249701	0.003980	-0.005860	-0.006787	0.999960	
4205														-0.065787	-0.031363	9.739033	-0.249670	-0.968298	-0.008034	0.968313	-0.249707	0.003974	-0.005855	-0.006788	0.999960	
4206														-0.069843	-0.044417	9.768576	-0.249691	-0.968292	-0.008033	0.968308	-0.249728	0.003981	-0.005861	-0.006784	0.999960	
4207														-0.084896	-0.040818	9.782455	-0.249734	-0.968281	-0.008036	0.968297	-0.249771	0.003975	-0.005857	-0.006789	0.999960	
4208														-0.083499	-0.040961	9.753205	-0.249751	-0.968277	-0.007988	0.968292	-0.249788	0.003991	-0.005859	-0.006738	0.999960	
4209														-0.067193	-0.028314	9.768292	-0.249732	-0.968282	-0.008038	0.968297	-0.249770	0.004000	-0.005880	-0.006784	0.999960	
4210														-0.086221	-0.054414	9.753501	-0.249794	-0.968266	-0.007994	0.968281	-0.249831	0.003981	-0.005851	-0.006746	0.999960	
4211														-0.083401	-0.039431	9.753212	-0.249786	-0.968268	-0.008008	0.968283	-0.249823	0.003987	-0.005861	-0.006759	0.999960	
4212														-0.069801	-0.041277	9.768590	-0.249792	-0.968266	-0.008013	0.968282	-0.249829	0.004002	-0.005877	-0.006759	0.999960	
4213														-0.083637	-0.038468	9.753214	-0.249821	-0.968259	-0.007998	0.968274	-0.249858	0.004020	-0.005890	-0.006740	0.999960	
4214														-0.058230	-0.057282	9.769639	-0.249838	-0.968255	-0.008007	0.968270	-0.249875	0.004004	-0.005877	-0.006753	0.999960	
4215														-0.101109	-0.048858	9.767391	-0.249860	-0.968249	-0.007996	0.968264	-0.249897	0.003968	-0.005840	-0.006751	0.999960	
4216														-0.069595	-0.039358	9.768599	-0.249886	-0.968242	-0.008013	0.968258	-0.249923	0.003993	-0.005868	-0.006761	0.999960	
4217														-0.070478	-0.038415	9.783226	-0.249922	-0.968233	-0.007997	0.968248	-0.249959	0.004013	-0.005885	-0.006740	0.999960	
4218														-0.072522	-0.052795	9.768899	-0.249936	-0.968229	-0.008022	0.968245	-0.249973	0.004006	-0.005884	-0.006766	0.999960	
4219														-0.083489	-0.035831	9.753226	-0.249948	-0.968226	-0.008026	0.968241	-0.249985	0.003999	-0.005878	-0.006772	0.999960	
4220														-0.082745	-0.035825	9.738602	-0.249984	-0.968217	-0.008030	0.968232	-0.250021	0.003995	-0.005876	-0.006776	0.999960	
4221														-0.069614	-0.037140	9.768608	-0.250015	-0.968209	-0.008021	0.968224	-0.250052	0.003983	-0.005862	-0.006770	0.999960	
4222														-0.085929	-0.048875	9.753533	-0.249988	-0.968216	-0.008033	0.968231	-0.250025	0.003989	-0.005871	-0.006781	0.999960	
4223														-0.085863	-0.048436	9.753535	-0.250021	-0.968207	-0.008022	0.968223	-0.250058	0.003973	-0.005853	-0.006773	0.999960	
4224														-0.100871	-0.044913	9.767413	-0.250010	-0.968210	-0.008037	0.968226	-0.250047	0.003980	-0.005863	-0.006786	0.999960	
4225														-0.083116	-0.033103	9.753238	-0.250026	-0.968206	-0.008017	0.968221	-0.250063	0.003980	-0.005858	-0.006768	0.999960	
4226														-0.073995	-0.064013	9.754599	-0.250072	-0.968194	-0.008024	0.968210	-0.250109	0.003973	-0.005854	-0.006776	0.999960	
4227														-0.069393	-0.034330	9.768620	-0.250089	-0.968190	-0.008028	0.968205	-0.250126	0.003990	-0.005872	-0.006775	0.999960	
4228														-0.068115	-0.034695	9.739369	-0.250092	-0.968189	-0.008021	0.968204	-0.250129	0.003998	-0.005877	-0.006766	0.999960	
4229														-0.086616	-0.044969	9.768175	-0.250122	-0.968181	-0.008003	0.968197	-0.250159	0.004016	-0.005890	-0.006744	0.999960	
4230														-0.072948	-0.046623	9.783556	-0.250162	-0.968171	-0.008005	0.968186	-0.250200	0.004011	-0.005887	-0.006747	0.999960	
4231														-0.086801	-0.043963	9.768178	-0.250163	-0.968171	-0.008013	0.968186	-0.250200	0.004049	-0.005925	-0.006745	0.999960	
4232														-0.084236	-0.029057	9.767872	-0.250207	-0.968159	-0.008005	0.968174	-0.250244	0.004035	-0.005909	-0.006741	0.999960	
4233														-0.085515	-0.043946	9.738930	-0.250172	-0.968168	-0.008029	0.968183	-0.250209	0.004047	-0.005927	-0.006761	0.999960	
4234														-0.058163	-0.048094	9.769689	-0.250198	-0.968161	-0.008050	0.968177	-0.250235	0.004038	-0.005924	-0.006784	0.999959	
4235														-0.086884	-0.042391	9.768184	-0.250248	-0.968149	-0.008029	0.968164	-0.250285	0.004036	-0.005917	-0.006763	0.999960	
4236														-0.058711	-0.046566	9.784321	-0.250264	-0.968145	-0.008009	0.968160	-0.250301	0.004036	-0.005912	-0.006744	0.999960	
4237														-0.069173	-0.029907	9.754007	-0.250266	-0.968144	-0.008025	0.968159	-0.250303	0.004061	-0.005940	-0.006753	0.999960	
4238														-0.087092	-0.040726	9.768190	-0.250271	-0.968143	-0.008010	0.968157	-0.250309	0.004084	-0.005959	-0.006733	0.999960	
4239														-0.087241	-0.040270	9.768190	-0.250311	-0.968132	-0.008038	0.968147	-0.250349	0.004093	-0.005975	-0.006758	0.999959	
4240														-0.072951	-0.042494	9.768946	-0.250313	-0.968132	-0.008036	0.968146	-0.250351	0.004103	-0.005984	-0.006752	0.999959	
4241														-0.069602	-0.027933	9.754009	-0.250335	-0.968126	-0.008020	0.968141	-0.250372	0.004101	-0.005979	-0.006738	0.999959	
4242														-0.072296	-0.041995	9.754324	-0.250347	-0.968123	-0.008070	0.968138	-0.250385	0.004112	-0.006002	-0.006784	0.999959	
4243														-0.073153	-0.041304	9.768950	-0.250389	-0.968111	-0.008078	0.968126	-0.250428	0.004128	-0.006019	-0.006787	0.999959	
4244														-0.071928	-0.025455	9.797887	-0.250074	-0.968194	-0.007984	0.968210	-0.250109	0.003857	-0.005731	-0.006766	0.999961	
4245														-0.074325	-0.055463	9.740020	-0.250116	-0.968183	-0.007974	0.968199	-0.250152	0.003843	-0.005716	-0.006759	0.999961	
4246														-0.086703	-0.037455	9.753576	-0.250135	-0.968178	-0.007966	0.968194	-0.250170	0.003851	-0.005722	-0.006749	0.999961	
4247														-0.089276	-0.051427	9.753896	-0.250162	-0.968171	-0.007978	0.968187	-0.250198	0.003837	-0.005711	-0.006764	0.999961	
4248														-0.087274	-0.036137	9.768206	-0.250175	-0.968168	-0.007972	0.968184	-0.250210	0.003846	-0.005718	-0.006757	0.999961	
4249														-0.086680	-0.036082	9.753582	-0.250191	-0.968164	-0.007977	0.968179	-0.250227	0.003863	-0.005736	-0.006757	0.999961	
4250														-0.058506	-0.040303	9.769722	-0.250192	-0.968164	-0.007952	0.968179	-0.250228	0.003841	-0.005708	-0.006738	0.999961	
4251														-0.086526	-0.034891	9.753587	-0.250189	-0.968164	-0.007936	0.968180	-0.250225	0.003861	-0.005724	-0.006717	0.999961	
4252														-0.087247	-0.033887	9.768214	-0.250215	-0.968158	-0.007937	0.968173	-0.250251	0.003856	-0.005719	-0.006720	0.999961	
4253														-0.086500	-0.033903	9.753591	-0.250241	-0.968151	-0.007942	0.968167	-0.250276	0.003849	-0.005714	-0.006726	0.999961	
4254														-0.072619	-0.035519	9.768976	-0.250274	-0.968143	-0.007921	0.968158	-0.250310	0.003828	-0.005689	-0.006711	0.999961	
4255														-0.090092	-0.046297	9.783174	-0.250305	-0.968135	-0.007911	0.968150	-0.250340	0.003816	-0.005675	-0.006704	0.999961	
4256														-0.086156	-0.032455	9.753599	-0.250318	-0.968131	-0.007951	0.968147	-0.250354	0.003835	-0.005704	-0.006738	0.999961	
4257														-0.089454	-0.046021	9.768551	-0.250357	-0.968121	-0.007930	0.968137	-0.250392	0.003813	-0.005677	-0.006723	0.999961	
4258														-0.089279	-0.045489	9.768555	-0.250350	-0.968123	-0.007933	0.968139	-0.250385	0.003809	-0.005674	-0.006727	0.999961	
4259														-0.085337	-0.031544	9.738980	-0.250366	-0.968119	-0.007940	0.968135	-0.250401	0.003826	-0.005693	-0.006729	0.999961	
4260														-0.092071	-0.058893	9.768886	-0.250405	-0.968109	-0.007925	0.968124	-0.250441	0.003846	-0.005709	-0.006709	0.999961	
4261														-0.073180	-0.031651	9.783614	-0.250413	-0.968107	-0.007928	0.968122	-0.250449	0.003844	-0.005707	-0.006713	0.999961	
4262														-0.088698	-0.043909	9.753939	-0.250488	-0.968087	-0.007919	0.968103	-0.250524	0.003828	-0.005690	-0.006708	0.999961	
4263														-0.072266	-0.031141	9.768994	-0.250485	-0.968088	-0.007920	0.968104	-0.250520	0.003824	-0.005686	-0.006710	0.999961	
4264														-0.088559	-0.042829	9.753945	-0.250516	-0.968080	-0.007894	0.968096	-0.250551	0.003837	-0.005692	-0.006681	0.999961	
4265														-0.076624	-0.059128	9.755038	-0.250516	-0.968080	-0.007872	0.968096	-0.250551	0.003814	-0.005665	-0.006665	0.999962	
4266														-0.087812	-0.025795	9.797494	-0.250539	-0.968075	-0.007877	0.968090	-0.250574	0.003830	-0.005682	-0.006666	0.999962	
4267														-0.072721	-0.044538	9.725461	-0.250597	-0.968060	-0.007864	0.968075	-0.250632	0.003850	-0.005698	-0.006648	0.999962	
4268														-0.074851	-0.042335	9.769339	-0.250634	-0.968050	-0.007816	0.968065	-0.250670	0.003866	-0.005701	-0.006597	0.999962	
4269														-0.089852	-0.038544	9.783209	-0.250658	-0.968044	-0.007808	0.968059	-0.250693	0.003851	-0.005686	-0.006593	0.999962	
4270														-0.073273	-0.042028	9.740096	-0.250669	-0.968041	-0.007810	0.968056	-0.250704	0.003848	-0.005683	-0.006596	0.999962	
4271														-0.085647	-0.023990	9.753628	-0.250723	-0.968028	-0.007779	0.968042	-0.250758	0.003840	-0.005667	-0.006568	0.999962	
4272														-0.101348	-0.019843	9.782122	-0.250722	-0.968028	-0.007773	0.968043	-0.250756	0.003851	-0.005677	-0.006559	0.999962	
4273														-0.073258	-0.040177	9.740104	-0.250701	-0.968033	-0.007762	0.968048	-0.250736	0.003891	-0.005713	-0.006539	0.999962	
4274														-0.088592	-0.036572	9.753970	-0.250766	-0.968017	-0.007767	0.968031	-0.250801	0.003908	-0.005731	-0.006539	0.999962	
4275														-0.072444	-0.023799	9.769013	-0.250775	-0.968014	-0.007774	0.968028	-0.250810	0.003922	-0.005747	-0.006541	0.999962	
4276														-0.076955	-0.052542	9.755073	-0.250773	-0.968015	-0.007756	0.968029	-0.250808	0.003921	-0.005741	-0.006524	0.999962	
4277														-0.092651	-0.048391	9.783567	-0.250788	-0.968011	-0.007737	0.968025	-0.250823	0.003921	-0.005736	-0.006507	0.999962	
4278														-0.075589	-0.035887	9.783987	-0.250815	-0.968004	-0.007719	0.968018	-0.250850	0.003919	-0.005730	-0.006490	0.999963	
4279														-0.078049	-0.049816	9.784334	-0.250829	-0.968001	-0.007730	0.968015	-0.250864	0.003903	-0.005717	-0.006503	0.999963	
4280														-0.076689	-0.049999	9.755089	-0.250844	-0.967997	-0.007661	0.968010	-0.250879	0.003944	-0.005739	-0.006427	0.999963	
4281														-0.074779	-0.034509	9.769370	-0.250866	-0.967991	-0.007706	0.968005	-0.250901	0.003910	-0.005718	-0.006478	0.999963	
4282														-0.077303	-0.048593	9.769719	-0.250900	-0.967982	-0.007690	0.967996	-0.250935	0.003931	-0.005735	-0.006457	0.999963	
4283														-0.088533	-0.031494	9.753988	-0.250912	-0.967979	-0.007685	0.967993	-0.250947	0.003940	-0.005742	-0.006450	0.999963	
4284														-0.077261	-0.047395	9.769725	-0.250959	-0.967967	-0.007661	0.967981	-0.250993	0.003917	-0.005714	-0.006433	0.999963	
4285														-0.090853	-0.044736	9.754344	-0.250973	-0.967964	-0.007655	0.967977	-0.251007	0.003926	-0.005721	-0.006425	0.999963	
4286														-0.088961	-0.029347	9.768620	-0.250988	-0.967960	-0.007658	0.967973	-0.251022	0.003922	-0.005718	-0.006428	0.999963	
4287														-0.091516	-0.043273	9.768973	-0.251031	-0.967949	-0.007652	0.967962	-0.251065	0.003929	-0.005724	-0.006421	0.999963	
4288														-0.088894	-0.028419	9.768623	-0.251042	-0.967946	-0.007666	0.967959	-0.251076	0.003913	-0.005712	-0.006438	0.999963	
4289														-0.077631	-0.044520	9.784363	-0.251083	-0.967935	-0.007668	0.967949	-0.251118	0.003908	-0.005709	-0.006441	0.999963	
4290														-0.087347	-0.028462	9.739379	-0.251117	-0.967926	-0.007649	0.967940	-0.251152	0.003905	-0.005701	-0.006423	0.999963	
4291														-0.092006	-0.040888	9.783607	-0.251156	-0.967916	-0.007657	0.967930	-0.251190	0.003922	-0.005719	-0.006426	0.999963	
4292														-0.076318	-0.043886	9.755121	-0.251173	-0.967912	-0.007651	0.967925	-0.251207	0.003930	-0.005726	-0.006419	0.999963	
4293														-0.073741	-0.028867	9.754768	-0.251183	-0.967909	-0.007630	0.967923	-0.251218	0.003931	-0.005722	-0.006398	0.999963	
4294														-0.074415	-0.027886	9.769394	-0.251190	-0.967908	-0.007643	0.967921	-0.251225	0.003934	-0.005728	-0.006410	0.999963	
4295														-0.088880	-0.025015	9.768633	-0.251254	-0.967891	-0.007659	0.967904	-0.251289	0.003938	-0.005736	-0.006424	0.999963	
4296														-0.076504	-0.042204	9.755127	-0.251264	-0.967888	-0.007699	0.967902	-0.251299	0.003958	-0.005766	-0.006458	0.999963	
4297														-0.062290	-0.044216	9.755890	-0.251276	-0.967885	-0.007662	0.967898	-0.251311	0.003983	-0.005781	-0.006415	0.999963	
4298														-0.076734	-0.041137	9.755130	-0.251290	-0.967881	-0.007687	0.967895	-0.251325	0.003976	-0.005780	-0.006441	0.999963	
4299														-0.077480	-0.040312	9.769755	-0.251345	-0.967867	-0.007694	0.967880	-0.251380	0.003993	-0.005799	-0.006444	0.999962	
4300														-0.076942	-0.040344	9.755132	-0.251334	-0.967870	-0.007700	0.967883	-0.251370	0.004011	-0.005818	-0.006444	0.999962	
4301														-0.091291	-0.037386	9.754371	-0.251370	-0.967860	-0.007698	0.967874	-0.251406	0.003986	-0.005794	-0.006449	0.999962	
4302														-0.076814	-0.039365	9.755137	-0.251371	-0.967860	-0.007682	0.967873	-0.251406	0.004009	-0.005812	-0.006428	0.999962	
4303														-0.080133	-0.052794	9.770124	-0.251385	-0.967857	-0.007697	0.967870	-0.251420	0.004014	-0.005820	-0.006441	0.999962	
4304														-0.077544	-0.038039	9.769764	-0.251404	-0.967852	-0.007708	0.967865	-0.251439	0.003998	-0.005807	-0.006455	0.999962	
4305														-0.076748	-0.038149	9.755142	-0.251445	-0.967841	-0.007709	0.967854	-0.251480	0.003993	-0.005804	-0.006457	0.999962	
4306														-0.079888	-0.051431	9.770134	-0.251407	-0.967851	-0.007668	0.967864	-0.251442	0.003995	-0.005795	-0.006417	0.999963	
4307														-0.062907	-0.038807	9.770536	-0.251434	-0.967844	-0.007661	0.967857	-0.251469	0.004002	-0.005800	-0.006408	0.999963	
4308														-0.076657	-0.036134	9.755150	-0.251476	-0.967833	-0.007633	0.967846	-0.251511	0.004014	-0.005804	-0.006378	0.999963	
4309														-0.090311	-0.033578	9.739765	-0.251476	-0.967833	-0.007644	0.967846	-0.251511	0.003997	-0.005791	-0.006393	0.999963	
4310														-0.109198	-0.043532	9.783244	-0.251487	-0.967831	-0.007627	0.967843	-0.251522	0.003996	-0.005786	-0.006377	0.999963	
4311														-0.061884	-0.037074	9.755923	-0.251521	-0.967822	-0.007627	0.967835	-0.251556	0.003971	-0.005762	-0.006383	0.999963	
4312														-0.076849	-0.033379	9.769786	-0.251496	-0.967829	-0.007579	0.967841	-0.251530	0.003987	-0.005765	-0.006332	0.999963	
4313														-0.073615	-0.018846	9.754794	-0.251517	-0.967823	-0.007603	0.967836	-0.251551	0.003978	-0.005763	-0.006358	0.999963	
4314														-0.077556	-0.031829	9.784413	-0.251524	-0.967821	-0.007589	0.967834	-0.251559	0.003997	-0.005777	-0.006339	0.999963	
4315														-0.075584	-0.032818	9.740543	-0.251582	-0.967806	-0.007604	0.967819	-0.251617	0.004002	-0.005786	-0.006353	0.999963	
4316														-0.076254	-0.031722	9.755169	-0.251576	-0.967808	-0.007563	0.967820	-0.251610	0.004005	-0.005779	-0.006312	0.999963	
4317														-0.063586	-0.048492	9.741687	-0.251626	-0.967795	-0.007564	0.967807	-0.251661	0.004000	-0.005775	-0.006314	0.999963	
4318														-0.061761	-0.033176	9.755937	-0.251640	-0.967791	-0.007578	0.967804	-0.251675	0.004005	-0.005783	-0.006326	0.999963	
4319														-0.093733	-0.041688	9.769409	-0.251675	-0.967782	-0.007570	0.967794	-0.251710	0.003992	-0.005769	-0.006321	0.999963	
4320														-0.077874	-0.044737	9.740929	-0.251624	-0.967795	-0.007584	0.967808	-0.251659	0.003997	-0.005777	-0.006334	0.999963	
4321														-0.076048	-0.029416	9.755178	-0.251670	-0.967783	-0.007586	0.967796	-0.251705	0.003992	-0.005773	-0.006337	0.999963	
4322														-0.077474	-0.027965	9.784426	-0.251694	-0.967777	-0.007592	0.967789	-0.251729	0.004008	-0.005790	-0.006339	0.999963	
4323														-0.063536	-0.045933	9.741699	-0.251697	-0.967776	-0.007594	0.967789	-0.251732	0.004003	-0.005786	-0.006342	0.999963	
4324														-0.093100	-0.040023	9.754794	-0.251726	-0.967769	-0.007600	0.967781	-0.251760	0.004019	-0.005803	-0.006343	0.999963	
4325														-0.090695	-0.025093	9.754416	-0.251765	-0.967759	-0.007595	0.967771	-0.251800	0.004027	-0.005809	-0.006336	0.999963	
4326														-0.094726	-0.038060	9.784043	-0.251788	-0.967753	-0.007615	0.967765	-0.251823	0.004051	-0.005838	-0.006349	0.999963	
4327														-0.062161	-0.029132	9.755948	-0.251792	-0.967751	-0.007608	0.967764	-0.251827	0.004058	-0.005843	-0.006341	0.999963	
4328														-0.081499	-0.054975	9.755947	-0.251836	-0.967740	-0.007599	0.967752	-0.251870	0.004045	-0.005828	-0.006335	0.999963	
4329														-0.064473	-0.042533	9.756334	-0.251880	-0.967729	-0.007600	0.967741	-0.251915	0.004040	-0.005824	-0.006337	0.999963	
4330														-0.090769	-0.022832	9.754421	-0.251912	-0.967720	-0.007623	0.967733	-0.251947	0.004031	-0.005821	-0.006362	0.999963	
4331														-0.081264	-0.053620	9.755956	-0.251953	-0.967710	-0.007583	0.967722	-0.251987	0.004034	-0.005814	-0.006322	0.999963	
4332														-0.081879	-0.052467	9.770584	-0.251986	-0.967701	-0.007585	0.967713	-0.252021	0.004030	-0.005812	-0.006324	0.999963	
4333														-0.079330	-0.037598	9.770201	-0.251977	-0.967704	-0.007586	0.967716	-0.252012	0.004027	-0.005809	-0.006326	0.999963	
4334														-0.078529	-0.037726	9.755580	-0.251981	-0.967702	-0.007597	0.967715	-0.252016	0.004012	-0.005797	-0.006341	0.999963	
4335														-0.064208	-0.039786	9.756348	-0.251961	-0.967708	-0.007605	0.967720	-0.251996	0.004052	-0.005838	-0.006339	0.999963	
4336														-0.081304	-0.051243	9.755969	-0.251986	-0.967701	-0.007596	0.967713	-0.252021	0.004060	-0.005843	-0.006328	0.999963	
4337														-0.096283	-0.047581	9.769830	-0.252043	-0.967687	-0.007554	0.967699	-0.252077	0.004042	-0.005816	-0.006291	0.999963	
4338														-0.081086	-0.049800	9.755978	-0.252050	-0.967685	-0.007538	0.967697	-0.252084	0.004062	-0.005831	-0.006270	0.999963	
4339														-0.078587	-0.034768	9.755591	-0.252087	-0.967675	-0.007528	0.967687	-0.252121	0.004049	-0.005816	-0.006264	0.999963	
4340														-0.078474	-0.034285	9.755593	-0.252115	-0.967668	-0.007532	0.967680	-0.252150	0.004046	-0.005814	-0.006268	0.999963	
4341														-0.095311	-0.045831	9.755220	-0.252136	-0.967662	-0.007534	0.967674	-0.252171	0.004041	-0.005810	-0.006271	0.999963	
4342														-0.066991	-0.049786	9.771381	-0.252157	-0.967657	-0.007531	0.967669	-0.252191	0.004016	-0.005785	-0.006275	0.999964	
4343														-0.078758	-0.032265	9.770225	-0.252161	-0.967656	-0.007489	0.967668	-0.252195	0.004021	-0.005780	-0.006233	0.999964	
4344														-0.095626	-0.043651	9.769854	-0.252149	-0.967659	-0.007503	0.967671	-0.252184	0.004026	-0.005788	-0.006246	0.999964	
4345														-0.078733	-0.031272	9.770228	-0.252178	-0.967652	-0.007508	0.967663	-0.252213	0.004023	-0.005786	-0.006251	0.999964	
4346														-0.078577	-0.030948	9.770231	-0.252172	-0.967653	-0.007529	0.967665	-0.252206	0.003994	-0.005763	-0.006278	0.999964	
4347														-0.081034	-0.044990	9.770628	-0.252179	-0.967651	-0.007526	0.967663	-0.252213	0.004024	-0.005792	-0.006268	0.999964	
4348														-0.078665	-0.030051	9.770233	-0.252192	-0.967648	-0.007531	0.967660	-0.252226	0.004020	-0.005789	-0.006273	0.999964	
4349														-0.095591	-0.041602	9.769864	-0.252185	-0.967650	-0.007537	0.967662	-0.252220	0.004037	-0.005807	-0.006276	0.999963	
4350														-0.080520	-0.044112	9.756010	-0.252235	-0.967637	-0.007541	0.967649	-0.252270	0.004031	-0.005803	-0.006280	0.999963	
4351														-0.095474	-0.040732	9.769869	-0.252279	-0.967625	-0.007540	0.967637	-0.252313	0.004005	-0.005778	-0.006286	0.999964	
4352														-0.077789	-0.028766	9.755617	-0.252296	-0.967621	-0.007534	0.967633	-0.252330	0.004013	-0.005784	-0.006278	0.999964	
4353														-0.067308	-0.044292	9.786031	-0.252324	-0.967613	-0.007583	0.967625	-0.252359	0.004021	-0.005805	-0.006323	0.999963	
4354														-0.081191	-0.041930	9.770641	-0.252335	-0.967610	-0.007547	0.967622	-0.252370	0.004046	-0.005820	-0.006281	0.999963	
4355														-0.094951	-0.039369	9.755252	-0.252329	-0.967612	-0.007548	0.967624	-0.252364	0.004042	-0.005816	-0.006284	0.999963	
4356														-0.080510	-0.041299	9.756023	-0.252347	-0.967607	-0.007541	0.967619	-0.252381	0.004050	-0.005822	-0.006275	0.999963	
4357														-0.081936	-0.039802	9.785270	-0.252378	-0.967599	-0.007556	0.967611	-0.252412	0.004053	-0.005829	-0.006288	0.999963	
4358														-0.063782	-0.028435	9.756390	-0.252373	-0.967601	-0.007562	0.967612	-0.252408	0.004070	-0.005847	-0.006290	0.999963	
4359														-0.067114	-0.041832	9.771418	-0.252400	-0.967593	-0.007560	0.967605	-0.252435	0.004100	-0.005876	-0.006280	0.999963	
4360														-0.081672	-0.038748	9.770650	-0.252399	-0.967594	-0.007533	0.967605	-0.252434	0.004112	-0.005880	-0.006251	0.999963	
4361														-0.094684	-0.036683	9.740638	-0.252413	-0.967591	-0.007515	0.967602	-0.252448	0.004111	-0.005875	-0.006234	0.999963	
4362														-0.064816	-0.025466	9.771017	-0.252472	-0.967575	-0.007523	0.967586	-0.252507	0.004128	-0.005894	-0.006236	0.999963	
4363														-0.067991	-0.038927	9.786049	-0.252461	-0.967578	-0.007525	0.967589	-0.252496	0.004125	-0.005891	-0.006240	0.999963	
4364														-0.065795	-0.040029	9.742184	-0.252162	-0.967655	-0.007613	0.967667	-0.252198	0.004173	-0.005958	-0.006315	0.999962	
4365														-0.082232	-0.035485	9.785284	-0.252185	-0.967649	-0.007607	0.967661	-0.252221	0.004183	-0.005967	-0.006306	0.999962	
4366														-0.081482	-0.035579	9.770663	-0.252198	-0.967646	-0.007618	0.967657	-0.252234	0.004167	-0.005954	-0.006321	0.999962	
4367														-0.069364	-0.051938	9.771847	-0.252230	-0.967638	-0.007600	0.967649	-0.252266	0.004165	-0.005947	-0.006304	0.999962	
4368														-0.081457	-0.034589	9.770667	-0.252246	-0.967633	-0.007620	0.967645	-0.252282	0.004191	-0.005977	-0.006316	0.999962	
4369														-0.080059	-0.035160	9.741424	-0.252233	-0.967637	-0.007597	0.967648	-0.252269	0.004170	-0.005952	-0.006300	0.999962	
4370														-0.067651	-0.035622	9.786064	-0.252251	-0.967632	-0.007645	0.967644	-0.252287	0.004179	-0.005973	-0.006343	0.999962	
4371														-0.069495	-0.050305	9.771855	-0.252302	-0.967618	-0.007639	0.967630	-0.252338	0.004189	-0.005981	-0.006335	0.999962	
4372														-0.095339	-0.031105	9.755278	-0.252302	-0.967618	-0.007646	0.967630	-0.252338	0.004207	-0.006000	-0.006337	0.999962	
4373														-0.098390	-0.044575	9.770317	-0.252321	-0.967613	-0.007645	0.967625	-0.252357	0.004182	-0.005976	-0.006343	0.999962	
4374														-0.081321	-0.032051	9.770677	-0.252354	-0.967605	-0.007636	0.967617	-0.252390	0.004169	-0.005961	-0.006336	0.999962	
4375														-0.085296	-0.061044	9.756890	-0.252371	-0.967600	-0.007647	0.967612	-0.252406	0.004153	-0.005948	-0.006351	0.999962	
4376														-0.094827	-0.029227	9.755289	-0.252369	-0.967601	-0.007619	0.967613	-0.252405	0.004164	-0.005952	-0.006321	0.999962	
4377														-0.083593	-0.045017	9.771101	-0.252398	-0.967593	-0.007645	0.967605	-0.252434	0.004179	-0.005973	-0.006343	0.999962	
4378														-0.079946	-0.031197	9.741439	-0.252394	-0.967595	-0.007631	0.967606	-0.252430	0.004199	-0.005989	-0.006324	0.999962	
4379														-0.083027	-0.044501	9.756482	-0.252422	-0.967587	-0.007621	0.967599	-0.252458	0.004187	-0.005976	-0.006317	0.999962	
4380														-0.066823	-0.031465	9.771458	-0.252444	-0.967581	-0.007636	0.967593	-0.252480	0.004194	-0.005986	-0.006330	0.999962	
4381														-0.082209	-0.044067	9.741866	-0.252456	-0.967578	-0.007605	0.967590	-0.252492	0.004185	-0.005969	-0.006302	0.999962	
4382														-0.082880	-0.042926	9.756491	-0.252477	-0.967573	-0.007611	0.967584	-0.252513	0.004201	-0.005987	-0.006303	0.999962	
4383														-0.083619	-0.041939	9.771114	-0.252518	-0.967562	-0.007615	0.967574	-0.252554	0.004197	-0.005984	-0.006309	0.999962	
4384														-0.083704	-0.041331	9.771116	-0.252526	-0.967560	-0.007591	0.967571	-0.252562	0.004231	-0.006011	-0.006277	0.999962	
4385														-0.082984	-0.041172	9.756497	-0.252553	-0.967553	-0.007571	0.967565	-0.252589	0.004210	-0.005986	-0.006262	0.999962	
4386														-0.083620	-0.040192	9.771121	-0.252581	-0.967546	-0.007600	0.967557	-0.252618	0.004224	-0.006007	-0.006286	0.999962	
4387														-0.068547	-0.042769	9.757273	-0.252594	-0.967542	-0.007602	0.967554	-0.252630	0.004221	-0.006004	-0.006289	0.999962	
4388														-0.080642	-0.025613	9.756075	-0.252629	-0.967533	-0.007630	0.967544	-0.252666	0.004234	-0.006024	-0.006313	0.999962	
4389														-0.084421	-0.038577	9.785747	-0.252638	-0.967531	-0.007621	0.967542	-0.252674	0.004222	-0.006010	-0.006307	0.999962	
4390														-0.066189	-0.026993	9.756851	-0.252677	-0.967521	-0.007606	0.967532	-0.252714	0.004242	-0.006027	-0.006287	0.999962	
4391														-0.068512	-0.040896	9.757282	-0.252694	-0.967516	-0.007605	0.967528	-0.252730	0.004217	-0.006002	-0.006292	0.999962	
4392														-0.083648	-0.037700	9.771131	-0.252727	-0.967507	-0.007646	0.967519	-0.252763	0.004239	-0.006034	-0.006326	0.999962	
4393														-0.083268	-0.037835	9.756508	-0.252743	-0.967503	-0.007634	0.967514	-0.252779	0.004281	-0.006072	-0.006304	0.999962	
4394														-0.069675	-0.039189	9.771905	-0.252765	-0.967497	-0.007657	0.967509	-0.252802	0.004273	-0.006070	-0.006328	0.999962	
4395														-0.071996	-0.053196	9.772338	-0.252780	-0.967494	-0.007639	0.967505	-0.252816	0.004272	-0.006065	-0.006310	0.999962	
4396														-0.099112	-0.032941	9.784983	-0.252795	-0.967490	-0.007642	0.967501	-0.252832	0.004268	-0.006061	-0.006315	0.999962	
4397														-0.083921	-0.035410	9.771137	-0.252804	-0.967487	-0.007646	0.967499	-0.252840	0.004264	-0.006059	-0.006319	0.999962	
4398														-0.069473	-0.037269	9.771914	-0.252844	-0.967477	-0.007639	0.967488	-0.252880	0.004273	-0.006065	-0.006310	0.999962	
4399														-0.069463	-0.036774	9.771916	-0.252858	-0.967473	-0.007643	0.967484	-0.252894	0.004268	-0.006062	-0.006315	0.999962	
4400														-0.083991	-0.033918	9.771142	-0.252854	-0.967474	-0.007640	0.967485	-0.252891	0.004297	-0.006090	-0.006305	0.999962	
4401														-0.083379	-0.033862	9.756522	-0.252861	-0.967473	-0.007621	0.967483	-0.252898	0.004298	-0.006085	-0.006286	0.999962	
4402														-0.072640	-0.049108	9.786978	-0.252875	-0.967469	-0.007645	0.967480	-0.252912	0.004290	-0.006084	-0.006312	0.999962	
4403														-0.082453	-0.033448	9.741906	-0.252913	-0.967459	-0.007602	0.967470	-0.252950	0.004272	-0.006056	-0.006275	0.999962	
4404														-0.084405	-0.031084	9.785773	-0.252926	-0.967456	-0.007595	0.967467	-0.252962	0.004281	-0.006063	-0.006266	0.999962	
4405														-0.070873	-0.048445	9.757747	-0.252937	-0.967453	-0.007585	0.967464	-0.252973	0.004269	-0.006048	-0.006258	0.999962	
4406														-0.082871	-0.031008	9.756536	-0.252949	-0.967450	-0.007557	0.967461	-0.252986	0.004281	-0.006053	-0.006229	0.999962	
4407														-0.073732	-0.061199	9.772816	-0.252968	-0.967445	-0.007578	0.967456	-0.253004	0.004251	-0.006030	-0.006256	0.999962	
4408														-0.084135	-0.028910	9.785782	-0.253028	-0.967429	-0.007555	0.967440	-0.253065	0.004284	-0.006057	-0.006225	0.999962	
4409														-0.085079	-0.043778	9.756985	-0.253025	-0.967430	-0.007532	0.967441	-0.253061	0.004262	-0.006029	-0.006209	0.999963	
4410														-0.069501	-0.030105	9.786562	-0.253050	-0.967424	-0.007557	0.967434	-0.253086	0.004253	-0.006027	-0.006234	0.999962	
4411														-0.084852	-0.042912	9.756991	-0.253096	-0.967412	-0.007539	0.967422	-0.253132	0.004252	-0.006021	-0.006217	0.999963	
4412														-0.070389	-0.044641	9.757769	-0.253078	-0.967417	-0.007531	0.967427	-0.253114	0.004261	-0.006029	-0.006208	0.999963	
4413														-0.067964	-0.029643	9.757326	-0.253093	-0.967413	-0.007522	0.967423	-0.253128	0.004248	-0.006014	-0.006202	0.999963	
4414														-0.087695	-0.055277	9.772066	-0.253124	-0.967404	-0.007546	0.967415	-0.253160	0.004241	-0.006013	-0.006227	0.999963	
4415														-0.068659	-0.028301	9.771949	-0.253151	-0.967397	-0.007544	0.967408	-0.253187	0.004271	-0.006042	-0.006217	0.999962	
4416														-0.087724	-0.054236	9.772072	-0.253175	-0.967391	-0.007510	0.967402	-0.253210	0.004242	-0.006005	-0.006191	0.999963	
4417														-0.067877	-0.027622	9.757333	-0.253209	-0.967382	-0.007521	0.967393	-0.253245	0.004280	-0.006045	-0.006192	0.999963	
4418														-0.082474	-0.024849	9.756557	-0.253241	-0.967374	-0.007523	0.967384	-0.253277	0.004277	-0.006043	-0.006194	0.999963	
4419														-0.084752	-0.038761	9.757009	-0.253247	-0.967372	-0.007504	0.967383	-0.253283	0.004277	-0.006038	-0.006176	0.999963	
4420														-0.070239	-0.040534	9.757788	-0.253261	-0.967369	-0.007507	0.967379	-0.253297	0.004273	-0.006035	-0.006179	0.999963	
4421														-0.070872	-0.039525	9.772411	-0.253278	-0.967364	-0.007509	0.967375	-0.253314	0.004269	-0.006031	-0.006183	0.999963	
4422														-0.070222	-0.039647	9.757791	-0.253294	-0.967360	-0.007515	0.967370	-0.253330	0.004285	-0.006049	-0.006185	0.999963	
4423														-0.086251	-0.035681	9.786257	-0.253289	-0.967361	-0.007512	0.967372	-0.253325	0.004314	-0.006077	-0.006174	0.999962	
4424														-0.085592	-0.035700	9.771638	-0.253323	-0.967353	-0.007503	0.967363	-0.253359	0.004302	-0.006062	-0.006168	0.999963	
4425														-0.074057	-0.051403	9.787493	-0.253317	-0.967354	-0.007507	0.967364	-0.253353	0.004297	-0.006059	-0.006173	0.999963	
4426														-0.100687	-0.047974	9.742081	-0.253352	-0.967345	-0.007485	0.967355	-0.253387	0.004275	-0.006032	-0.006157	0.999963	
4427														-0.071329	-0.035932	9.787045	-0.253361	-0.967343	-0.007495	0.967353	-0.253396	0.004260	-0.006020	-0.006171	0.999963	
4428														-0.070574	-0.036065	9.772426	-0.253376	-0.967339	-0.007488	0.967349	-0.253412	0.004268	-0.006026	-0.006162	0.999963	
4429														-0.072252	-0.050648	9.758264	-0.253401	-0.967332	-0.007503	0.967343	-0.253437	0.004274	-0.006035	-0.006175	0.999963	
4430														-0.070613	-0.035125	9.772429	-0.253429	-0.967325	-0.007485	0.967335	-0.253465	0.004274	-0.006031	-0.006157	0.999963	
4431														-0.087418	-0.046731	9.772113	-0.253413	-0.967329	-0.007493	0.967339	-0.253449	0.004291	-0.006050	-0.006160	0.999963	
4432														-0.084970	-0.031683	9.771657	-0.253444	-0.967321	-0.007458	0.967331	-0.253480	0.004261	-0.006013	-0.006134	0.999963	
4433														-0.084740	-0.031100	9.771661	-0.253440	-0.967322	-0.007459	0.967332	-0.253476	0.004257	-0.006008	-0.006136	0.999963	
4434														-0.084690	-0.030768	9.771663	-0.253509	-0.967304	-0.007485	0.967314	-0.253544	0.004247	-0.006006	-0.006164	0.999963	
4435														-0.071112	-0.048235	9.743662	-0.253494	-0.967308	-0.007467	0.967318	-0.253530	0.004247	-0.006002	-0.006146	0.999963	
4436														-0.067800	-0.017617	9.771981	-0.253516	-0.967302	-0.007469	0.967313	-0.253551	0.004242	-0.005997	-0.006150	0.999963	
4437														-0.072528	-0.046132	9.772908	-0.253533	-0.967298	-0.007489	0.967308	-0.253569	0.004267	-0.006027	-0.006162	0.999963	
4438														-0.085573	-0.044512	9.742892	-0.253552	-0.967293	-0.007465	0.967303	-0.253587	0.004246	-0.006000	-0.006144	0.999963	
4439														-0.086788	-0.042816	9.772137	-0.253569	-0.967288	-0.007467	0.967299	-0.253605	0.004241	-0.005996	-0.006148	0.999963	
4440														-0.069922	-0.030257	9.772451	-0.253580	-0.967286	-0.007477	0.967296	-0.253615	0.004225	-0.005983	-0.006162	0.999963	
4441														-0.087254	-0.041366	9.786763	-0.253580	-0.967286	-0.007459	0.967296	-0.253616	0.004226	-0.005979	-0.006144	0.999963	
4442														-0.081761	-0.012286	9.771212	-0.253587	-0.967284	-0.007417	0.967294	-0.253622	0.004208	-0.005952	-0.006108	0.999964	
4443														-0.073341	-0.057880	9.758777	-0.253586	-0.967284	-0.007420	0.967295	-0.253621	0.004203	-0.005947	-0.006112	0.999964	
4444														-0.099980	-0.038426	9.756756	-0.253601	-0.967280	-0.007427	0.967291	-0.253636	0.004220	-0.005965	-0.006114	0.999964	
4445														-0.074813	-0.055814	9.788022	-0.253638	-0.967271	-0.007430	0.967281	-0.253674	0.004215	-0.005962	-0.006118	0.999964	
4446														-0.088511	-0.053693	9.772627	-0.253668	-0.967263	-0.007433	0.967273	-0.253703	0.004212	-0.005959	-0.006121	0.999964	
4447														-0.082515	-0.025451	9.742447	-0.253642	-0.967270	-0.007425	0.967280	-0.253677	0.004219	-0.005965	-0.006112	0.999964	
4448														-0.072370	-0.039871	9.787559	-0.253665	-0.967264	-0.007415	0.967274	-0.253700	0.004208	-0.005951	-0.006105	0.999964	
4449														-0.085428	-0.038391	9.757543	-0.253657	-0.967266	-0.007442	0.967276	-0.253692	0.004221	-0.005971	-0.006128	0.999963	
4450														-0.083987	-0.022891	9.771690	-0.253727	-0.967247	-0.007429	0.967257	-0.253762	0.004242	-0.005989	-0.006110	0.999963	
4451														-0.068893	-0.025299	9.757849	-0.253733	-0.967246	-0.007453	0.967256	-0.253769	0.004235	-0.005988	-0.006135	0.999963	
4452														-0.086172	-0.036586	9.772167	-0.253766	-0.967237	-0.007453	0.967247	-0.253801	0.004210	-0.005963	-0.006141	0.999963	
4453														-0.069572	-0.040075	9.729088	-0.253794	-0.967230	-0.007439	0.967240	-0.253829	0.004231	-0.005980	-0.006121	0.999963	
4454														-0.088428	-0.049955	9.772648	-0.253787	-0.967231	-0.007440	0.967242	-0.253823	0.004226	-0.005976	-0.006123	0.999963	
4455														-0.087720	-0.050153	9.758030	-0.253766	-0.967237	-0.007454	0.967247	-0.253801	0.004230	-0.005983	-0.006137	0.999963	
4456														-0.085375	-0.035252	9.757555	-0.253798	-0.967229	-0.007446	0.967239	-0.253833	0.004217	-0.005969	-0.006131	0.999963	
4457														-0.087536	-0.049229	9.758037	-0.253791	-0.967230	-0.007447	0.967241	-0.253826	0.004213	-0.005965	-0.006134	0.999963	
4458														-0.086570	-0.032931	9.786801	-0.253820	-0.967223	-0.007409	0.967233	-0.253854	0.004216	-0.005959	-0.006096	0.999964	
4459														-0.073619	-0.049587	9.773442	-0.253812	-0.967225	-0.007410	0.967235	-0.253847	0.004212	-0.005955	-0.006098	0.999964	
4460														-0.086479	-0.031785	9.786806	-0.253824	-0.967222	-0.007404	0.967232	-0.253859	0.004220	-0.005962	-0.006090	0.999964	
4461														-0.056863	-0.036372	9.773744	-0.253842	-0.967217	-0.007406	0.967227	-0.253877	0.004216	-0.005958	-0.006093	0.999964	
4462														-0.098883	-0.030390	9.742171	-0.253860	-0.967213	-0.007412	0.967223	-0.253895	0.004232	-0.005975	-0.006094	0.999964	
4463														-0.073093	-0.048390	9.758830	-0.253867	-0.967211	-0.007440	0.967221	-0.253902	0.004246	-0.005995	-0.006118	0.999963	
4464														-0.059318	-0.049535	9.774231	-0.253884	-0.967206	-0.007409	0.967216	-0.253919	0.004236	-0.005978	-0.006090	0.999964	
4465														-0.073736	-0.046485	9.773457	-0.253894	-0.967204	-0.007374	0.967213	-0.253929	0.004261	-0.005993	-0.006051	0.999964	
4466														-0.086932	-0.044683	9.743441	-0.253973	-0.967183	-0.007361	0.967193	-0.254008	0.004281	-0.006011	-0.006032	0.999964	
4467														-0.073858	-0.045224	9.773462	-0.253962	-0.967186	-0.007372	0.967196	-0.253997	0.004265	-0.005997	-0.006047	0.999964	
4468														-0.071645	-0.030413	9.772976	-0.253942	-0.967191	-0.007391	0.967201	-0.253978	0.004291	-0.006027	-0.006059	0.999963	
4469														-0.088564	-0.042240	9.772683	-0.253954	-0.967188	-0.007398	0.967197	-0.253989	0.004308	-0.006045	-0.006061	0.999963	
4470														-0.076244	-0.058446	9.773955	-0.253950	-0.967189	-0.007386	0.967199	-0.253986	0.004275	-0.006011	-0.006058	0.999964	
4471														-0.086872	-0.026188	9.786819	-0.253943	-0.967191	-0.007396	0.967200	-0.253978	0.004312	-0.006049	-0.006059	0.999963	
4472														-0.088630	-0.040747	9.772689	-0.253988	-0.967179	-0.007392	0.967188	-0.254024	0.004322	-0.006058	-0.006052	0.999963	
4473														-0.073470	-0.043084	9.758852	-0.254023	-0.967170	-0.007396	0.967179	-0.254059	0.004317	-0.006054	-0.006057	0.999963	
4474														-0.087866	-0.040424	9.758074	-0.254011	-0.967173	-0.007398	0.967183	-0.254046	0.004313	-0.006051	-0.006060	0.999963	
4475														-0.074729	-0.040888	9.788096	-0.254019	-0.967171	-0.007379	0.967180	-0.254054	0.004313	-0.006046	-0.006042	0.999963	
4476														-0.073371	-0.041547	9.758860	-0.254023	-0.967170	-0.007386	0.967179	-0.254059	0.004330	-0.006065	-0.006044	0.999963	
4477														-0.056704	-0.028743	9.759149	-0.254039	-0.967166	-0.007368	0.967175	-0.254074	0.004329	-0.006059	-0.006026	0.999963	
4478														-0.090089	-0.052649	9.758578	-0.254072	-0.967157	-0.007361	0.967166	-0.254107	0.004338	-0.006066	-0.006017	0.999963	
4479														-0.071245	-0.025427	9.758370	-0.254105	-0.967149	-0.007368	0.967158	-0.254140	0.004355	-0.006084	-0.006019	0.999963	
4480														-0.091667	-0.050326	9.787821	-0.254131	-0.967142	-0.007341	0.967151	-0.254166	0.004368	-0.006090	-0.005990	0.999964	
4481														-0.100149	-0.020021	9.756809	-0.254144	-0.967138	-0.007382	0.967147	-0.254179	0.004334	-0.006068	-0.006038	0.999963	
4482														-0.073411	-0.038572	9.758872	-0.254134	-0.967141	-0.007368	0.967150	-0.254169	0.004355	-0.006084	-0.006019	0.999963	
4483														-0.088651	-0.035144	9.772711	-0.254152	-0.967136	-0.007363	0.967145	-0.254188	0.004362	-0.006090	-0.006012	0.999963	
4484														-0.073529	-0.037409	9.758875	-0.253910	-0.967200	-0.007311	0.967207	-0.253947	0.004641	-0.006346	-0.005893	0.999963	
4485														-0.074203	-0.036193	9.773497	-0.253903	-0.967202	-0.007293	0.967209	-0.253939	0.004641	-0.006341	-0.005875	0.999963	
4486														-0.075655	-0.050625	9.759382	-0.253907	-0.967201	-0.007274	0.967208	-0.253943	0.004641	-0.006336	-0.005857	0.999963	
4487														-0.077857	-0.064492	9.759888	-0.253898	-0.967204	-0.007268	0.967210	-0.253934	0.004649	-0.006342	-0.005849	0.999963	
4488														-0.087802	-0.032916	9.758103	-0.253915	-0.967199	-0.007279	0.967206	-0.253952	0.004632	-0.006328	-0.005864	0.999963	
