// Start Time: Unknown: 
// Update Rate: 60.0Hz 
// Filter Profile: human (46.1) 
// Firmware Version: 4.6.0
PacketCounter	SampleTimeFine	Year	Month	Day	Second	UTC_Nano	UTC_Year	UTC_Month	UTC_Day	UTC_Hour	UTC_Minute	UTC_Second	UTC_Valid	Acc_X	Acc_Y	Acc_Z	Mat[1][1]	Mat[2][1]	Mat[3][1]	Mat[1][2]	Mat[2][2]	Mat[3][2]	Mat[1][3]	Mat[2][3]	Mat[3][3] 
13114								0.081021	-0.091479	9.783834	0.999890	-0.012196	-0.008415	0.012274	0.999882	0.009272	0.008301	-0.009375	0.999922	
13115								0.077623	-0.072256	9.757152	0.999891	-0.012162	-0.008382	0.012240	0.999883	0.009226	0.008268	-0.009327	0.999922	
13116								0.063099	-0.083950	9.774291	0.999892	-0.012099	-0.008339	0.012176	0.999884	0.009157	0.008228	-0.009258	0.999923	
13117								0.076006	-0.077734	9.776808	0.999893	-0.012050	-0.008312	0.012125	0.999885	0.009123	0.008201	-0.009223	0.999924	
13118								0.062473	-0.083060	9.774303	0.999894	-0.012017	-0.008278	0.012092	0.999886	0.009076	0.008168	-0.009175	0.999925	
13119								0.092637	-0.083204	9.786381	0.999894	-0.011990	-0.008251	0.012064	0.999887	0.008995	0.008142	-0.009093	0.999926	
13120								0.075200	-0.076152	9.776827	0.999895	-0.011941	-0.008223	0.012014	0.999888	0.008959	0.008115	-0.009057	0.999926	
13121								0.073865	-0.082201	9.796477	0.999896	-0.011886	-0.008159	0.011959	0.999889	0.008896	0.008052	-0.008992	0.999927	
13122								0.073404	-0.081759	9.796484	0.999897	-0.011867	-0.008124	0.011939	0.999889	0.008863	0.008018	-0.008959	0.999928	
13123								0.069171	-0.069053	9.789437	0.999898	-0.011790	-0.008094	0.011861	0.999891	0.008789	0.007990	-0.008884	0.999929	
13124								0.065436	-0.085585	9.761751	0.999898	-0.011746	-0.008075	0.011817	0.999892	0.008729	0.007971	-0.008824	0.999929	
13125								0.077634	-0.085948	9.783912	0.999899	-0.011715	-0.008054	0.011785	0.999893	0.008688	0.007951	-0.008782	0.999930	
13126								0.085826	-0.074089	9.799017	0.999900	-0.011652	-0.008021	0.011722	0.999894	0.008629	0.007919	-0.008722	0.999931	
13127								0.071566	-0.085706	9.816157	0.999901	-0.011584	-0.008019	0.011652	0.999896	0.008545	0.007919	-0.008638	0.999931	
13938								0.059642	-0.063783	9.784185	0.999902	-0.011649	-0.007733	0.011709	0.999901	0.007740	0.007642	-0.007830	0.999940	
13939								0.076527	-0.068564	9.794491	0.999902	-0.011666	-0.007745	0.011726	0.999901	0.007753	0.007654	-0.007843	0.999940	
13940								0.074251	-0.086622	9.767656	0.999902	-0.011673	-0.007772	0.011733	0.999901	0.007746	0.007680	-0.007836	0.999940	
13941								0.076170	-0.067405	9.794502	0.999902	-0.011682	-0.007754	0.011742	0.999901	0.007764	0.007663	-0.007855	0.999940	
13942								0.060552	-0.084274	9.831839	0.999902	-0.011685	-0.007766	0.011745	0.999901	0.007759	0.007674	-0.007850	0.999940	
13943								0.091670	-0.084579	9.758053	0.999902	-0.011696	-0.007741	0.011756	0.999901	0.007747	0.007650	-0.007838	0.999940	
13944								0.054628	-0.084441	9.777312	0.999902	-0.011662	-0.007752	0.011723	0.999901	0.007770	0.007661	-0.007860	0.999940	
13945								0.079083	-0.076729	9.802305	0.999902	-0.011677	-0.007746	0.011737	0.999901	0.007770	0.007654	-0.007860	0.999940	
13946								0.079867	-0.070525	9.782383	0.999902	-0.011707	-0.007733	0.011767	0.999901	0.007759	0.007641	-0.007849	0.999940	
13947								0.078319	-0.075360	9.802322	0.999902	-0.011706	-0.007730	0.011766	0.999901	0.007756	0.007638	-0.007847	0.999940	
13948								0.059653	-0.074841	9.811953	0.999902	-0.011692	-0.007727	0.011752	0.999901	0.007736	0.007635	-0.007826	0.999940	
13949								0.071373	-0.080867	9.767727	0.999902	-0.011695	-0.007738	0.011755	0.999901	0.007731	0.007647	-0.007821	0.999940	
13950								0.070019	-0.085720	9.787666	0.999902	-0.011699	-0.007750	0.011759	0.999901	0.007726	0.007659	-0.007816	0.999940	
13951								0.076142	-0.078063	9.822283	0.999902	-0.011698	-0.007747	0.011757	0.999901	0.007723	0.007656	-0.007814	0.999940	
13952								0.083464	-0.072700	9.770276	0.999902	-0.011685	-0.007722	0.011745	0.999901	0.007756	0.007631	-0.007846	0.999940	
13953								0.076424	-0.071534	9.802365	0.999902	-0.011701	-0.007712	0.011761	0.999901	0.007742	0.007621	-0.007832	0.999940	
13954								0.064389	-0.071746	9.779910	0.999903	-0.011597	-0.007723	0.011657	0.999902	0.007776	0.007632	-0.007865	0.999940	
13955								0.064156	-0.071074	9.779917	0.999903	-0.011581	-0.007719	0.011640	0.999902	0.007755	0.007629	-0.007844	0.999940	
13956								0.090681	-0.093454	9.785880	0.999903	-0.011599	-0.007728	0.011659	0.999902	0.007753	0.007637	-0.007843	0.999940	
13957								0.067774	-0.081468	9.787718	0.999903	-0.011606	-0.007711	0.011666	0.999902	0.007772	0.007620	-0.007861	0.999940	
13958								0.072750	-0.087017	9.775580	0.999903	-0.011622	-0.007701	0.011682	0.999902	0.007757	0.007610	-0.007846	0.999940	
13959								0.072395	-0.086312	9.775589	0.999903	-0.011621	-0.007698	0.011680	0.999902	0.007755	0.007607	-0.007844	0.999940	
13960								0.082800	-0.090285	9.817995	0.999903	-0.011623	-0.007724	0.011682	0.999902	0.007747	0.007633	-0.007837	0.999940	
13961								0.083625	-0.084069	9.798069	0.999903	-0.011630	-0.007685	0.011690	0.999902	0.007737	0.007594	-0.007826	0.999941	
13962								0.070148	-0.089702	9.795551	0.999903	-0.011647	-0.007675	0.011706	0.999902	0.007723	0.007584	-0.007812	0.999941	
13963								0.065586	-0.077318	9.787766	0.999903	-0.011630	-0.007676	0.011690	0.999902	0.007718	0.007585	-0.007807	0.999941	
13964								0.065353	-0.076555	9.787774	0.999903	-0.011619	-0.007687	0.011678	0.999902	0.007694	0.007597	-0.007783	0.999941	
13965								0.070600	-0.082119	9.775638	0.999903	-0.011633	-0.007703	0.011693	0.999902	0.007723	0.007612	-0.007812	0.999941	
13966								0.089660	-0.068119	9.812779	0.999903	-0.011620	-0.007700	0.011679	0.999902	0.007702	0.007609	-0.007791	0.999941	
13967								0.065857	-0.069113	9.767856	0.999903	-0.011591	-0.007704	0.011651	0.999903	0.007694	0.007614	-0.007783	0.999941	
13968								0.079362	-0.098014	9.771319	0.999903	-0.011601	-0.007687	0.011660	0.999902	0.007712	0.007597	-0.007801	0.999941	
13969								0.074656	-0.085839	9.763529	0.999903	-0.011610	-0.007666	0.011670	0.999902	0.007715	0.007576	-0.007804	0.999941	
13970								0.065640	-0.103309	9.768808	0.999903	-0.011598	-0.007685	0.011658	0.999902	0.007723	0.007595	-0.007811	0.999941	
13971								0.076309	-0.065970	9.790347	0.999903	-0.011615	-0.007693	0.011675	0.999902	0.007721	0.007603	-0.007810	0.999941	
13972								0.056815	-0.078679	9.753221	0.999903	-0.011623	-0.007702	0.011682	0.999902	0.007701	0.007611	-0.007790	0.999941	
13973								0.068284	-0.076980	9.775697	0.999903	-0.011622	-0.007695	0.011682	0.999902	0.007683	0.007605	-0.007772	0.999941	
13974								0.079733	-0.075424	9.798172	0.999903	-0.011604	-0.007699	0.011663	0.999902	0.007693	0.007609	-0.007782	0.999941	
13975								0.066617	-0.081231	9.795650	0.999902	-0.011643	-0.007719	0.011702	0.999902	0.007691	0.007629	-0.007781	0.999941	
13976								0.062176	-0.068940	9.787851	0.999902	-0.011640	-0.007716	0.011699	0.999902	0.007689	0.007626	-0.007778	0.999941	
13977								0.071498	-0.086019	9.783530	0.999903	-0.011626	-0.007713	0.011685	0.999902	0.007668	0.007623	-0.007758	0.999941	
13978								0.060452	-0.073001	9.807806	0.999903	-0.011613	-0.007731	0.011673	0.999902	0.007676	0.007641	-0.007765	0.999941	
13979								0.065742	-0.078632	9.795677	0.999903	-0.011616	-0.007747	0.011675	0.999902	0.007686	0.007657	-0.007776	0.999940	
13980								0.069757	-0.089683	9.803492	0.999903	-0.011600	-0.007747	0.011660	0.999903	0.007681	0.007657	-0.007771	0.999940	
13981								0.061133	-0.065921	9.787879	0.999903	-0.011585	-0.007774	0.011645	0.999902	0.007719	0.007683	-0.007809	0.999940	
13982								0.100668	-0.081909	9.796427	0.999903	-0.011572	-0.007763	0.011632	0.999903	0.007668	0.007673	-0.007758	0.999940	
13983								0.066926	-0.106591	9.776723	0.999903	-0.011546	-0.007759	0.011606	0.999903	0.007711	0.007670	-0.007800	0.999940	
13984								0.082821	-0.075562	9.786104	0.999903	-0.011544	-0.007756	0.011604	0.999903	0.007709	0.007667	-0.007798	0.999940	
13985								0.069620	-0.081315	9.783584	0.999903	-0.011561	-0.007765	0.011621	0.999903	0.007707	0.007675	-0.007796	0.999940	
13986								0.085331	-0.091398	9.813875	0.999903	-0.011560	-0.007762	0.011620	0.999903	0.007704	0.007672	-0.007794	0.999940	
13987								0.073212	-0.091667	9.791413	0.999903	-0.011540	-0.007748	0.011600	0.999903	0.007702	0.007658	-0.007791	0.999940	
13988								0.067414	-0.084847	9.803551	0.999903	-0.011539	-0.007745	0.011599	0.999903	0.007700	0.007656	-0.007789	0.999940	
13989								0.060881	-0.091213	9.768959	0.999903	-0.011561	-0.007764	0.011621	0.999903	0.007680	0.007674	-0.007770	0.999940	
13990								0.073423	-0.084049	9.771496	0.999903	-0.011568	-0.007724	0.011628	0.999903	0.007671	0.007635	-0.007760	0.999941	
13991								0.072926	-0.083366	9.771505	0.999903	-0.011567	-0.007722	0.011627	0.999903	0.007669	0.007632	-0.007758	0.999941	
13992								0.075720	-0.099728	9.799278	0.999903	-0.011557	-0.007733	0.011616	0.999903	0.007646	0.007644	-0.007735	0.999941	
13993								0.065703	-0.081117	9.803594	0.999903	-0.011567	-0.007708	0.011626	0.999903	0.007633	0.007619	-0.007722	0.999941	
13994								0.070720	-0.086670	9.791477	0.999903	-0.011564	-0.007709	0.011623	0.999903	0.007646	0.007620	-0.007735	0.999941	
13995								0.073684	-0.061882	9.798314	0.999903	-0.011564	-0.007706	0.011623	0.999903	0.007644	0.007617	-0.007733	0.999941	
13996								0.088471	-0.085206	9.781896	0.999904	-0.011549	-0.007707	0.011608	0.999903	0.007639	0.007618	-0.007727	0.999941	
13997								0.060001	-0.066985	9.795800	0.999904	-0.011540	-0.007675	0.011598	0.999904	0.007642	0.007586	-0.007730	0.999941	
13998								0.082310	-0.077582	9.794038	0.999904	-0.011554	-0.007708	0.011612	0.999904	0.007601	0.007620	-0.007690	0.999941	
13999								0.052004	-0.078030	9.781165	0.999904	-0.011562	-0.007691	0.011621	0.999903	0.007619	0.007602	-0.007708	0.999941	
14000								0.068846	-0.082833	9.791524	0.999904	-0.011528	-0.007702	0.011586	0.999904	0.007642	0.007614	-0.007730	0.999941	
14001								0.063288	-0.075940	9.803652	0.999904	-0.011523	-0.007724	0.011582	0.999904	0.007601	0.007636	-0.007689	0.999941	
14002								0.068542	-0.081357	9.791538	0.999904	-0.011520	-0.007725	0.011579	0.999904	0.007613	0.007637	-0.007702	0.999941	
14003								0.062788	-0.074623	9.803665	0.999904	-0.011534	-0.007718	0.011593	0.999904	0.007614	0.007630	-0.007703	0.999941	
14004								0.080862	-0.073762	9.794079	0.999903	-0.011552	-0.007727	0.011611	0.999904	0.007612	0.007638	-0.007701	0.999941	
14005								0.073102	-0.085619	9.779441	0.999904	-0.011538	-0.007724	0.011596	0.999904	0.007592	0.007635	-0.007681	0.999941	
14006								0.059821	-0.091235	9.776924	0.999904	-0.011554	-0.007714	0.011612	0.999904	0.007577	0.007625	-0.007666	0.999942	
14007								0.071229	-0.089535	9.799411	0.999904	-0.011522	-0.007718	0.011580	0.999904	0.007569	0.007630	-0.007657	0.999942	
14008								0.066777	-0.077086	9.791585	0.999903	-0.011562	-0.007729	0.011621	0.999904	0.007537	0.007642	-0.007626	0.999942	
14009								0.083710	-0.081585	9.801954	0.999903	-0.011560	-0.007731	0.011618	0.999904	0.007550	0.007643	-0.007639	0.999942	
14010								0.062054	-0.064307	9.783761	0.999903	-0.011541	-0.007738	0.011600	0.999904	0.007575	0.007650	-0.007664	0.999941	
14011								0.071606	-0.081583	9.779487	0.999903	-0.011549	-0.007765	0.011608	0.999904	0.007568	0.007677	-0.007657	0.999941	
14012								0.074620	-0.056552	9.786298	0.999903	-0.011566	-0.007751	0.011624	0.999904	0.007538	0.007663	-0.007627	0.999942	
14013								0.065617	-0.073727	9.791619	0.999903	-0.011570	-0.007759	0.011629	0.999904	0.007518	0.007671	-0.007607	0.999942	
14014								0.074958	-0.090815	9.787353	0.999903	-0.011564	-0.007741	0.011623	0.999904	0.007518	0.007653	-0.007607	0.999942	
14015								0.070502	-0.078502	9.779520	0.999903	-0.011542	-0.007774	0.011601	0.999905	0.007505	0.007687	-0.007594	0.999942	
14016								0.088615	-0.077520	9.769941	0.999903	-0.011554	-0.007749	0.011612	0.999905	0.007493	0.007662	-0.007582	0.999942	
14017								0.074085	-0.088666	9.787379	0.999903	-0.011538	-0.007750	0.011596	0.999905	0.007487	0.007663	-0.007577	0.999942	
14018								0.051121	-0.076613	9.789130	0.999904	-0.011518	-0.007736	0.011575	0.999905	0.007485	0.007649	-0.007573	0.999942	
14019								0.064884	-0.064183	9.771707	0.999904	-0.011515	-0.007737	0.011573	0.999905	0.007498	0.007650	-0.007586	0.999942	
14020								0.072961	-0.086803	9.787405	0.999904	-0.011526	-0.007712	0.011583	0.999905	0.007486	0.007625	-0.007574	0.999942	
14021								0.081298	-0.068038	9.782093	0.999904	-0.011514	-0.007727	0.011572	0.999905	0.007478	0.007641	-0.007566	0.999942	
14022								0.075692	-0.061163	9.794207	0.999904	-0.011518	-0.007739	0.011576	0.999905	0.007473	0.007652	-0.007562	0.999942	
14023								0.066623	-0.078570	9.799537	0.999904	-0.011508	-0.007707	0.011565	0.999905	0.007476	0.007620	-0.007564	0.999942	
14024								0.067503	-0.072497	9.779588	0.999904	-0.011516	-0.007733	0.011574	0.999905	0.007468	0.007647	-0.007557	0.999942	
14025								0.079112	-0.070814	9.802076	0.999904	-0.011520	-0.007745	0.011578	0.999905	0.007464	0.007659	-0.007552	0.999942	
14026								0.064759	-0.081900	9.819515	0.999904	-0.011491	-0.007745	0.011549	0.999906	0.007440	0.007659	-0.007529	0.999942	
14027								0.083933	-0.075422	9.789987	0.999904	-0.011487	-0.007724	0.011544	0.999906	0.007425	0.007638	-0.007513	0.999943	
14028								0.066431	-0.069516	9.779617	0.999904	-0.011490	-0.007736	0.011547	0.999906	0.007420	0.007650	-0.007508	0.999943	
14029								0.072942	-0.069641	9.747559	0.999903	-0.011528	-0.007755	0.011585	0.999905	0.007419	0.007669	-0.007508	0.999942	
14030								0.074497	-0.091464	9.795339	0.999904	-0.011523	-0.007738	0.011580	0.999905	0.007419	0.007652	-0.007508	0.999943	
14031								0.069750	-0.079208	9.787492	0.999904	-0.011484	-0.007713	0.011541	0.999906	0.007415	0.007627	-0.007504	0.999943	
14032								0.068187	-0.083866	9.807460	0.999904	-0.011473	-0.007724	0.011531	0.999906	0.007393	0.007639	-0.007481	0.999943	
14033								0.069088	-0.077699	9.787509	0.999905	-0.011453	-0.007710	0.011510	0.999906	0.007389	0.007625	-0.007477	0.999943	
14034								0.064570	-0.065577	9.779656	0.999905	-0.011454	-0.007729	0.011511	0.999906	0.007416	0.007644	-0.007504	0.999943	
14035								0.080384	-0.075642	9.810005	0.999904	-0.011457	-0.007741	0.011515	0.999906	0.007411	0.007655	-0.007499	0.999943	
14036								0.068603	-0.076045	9.787526	0.999904	-0.011449	-0.007774	0.011506	0.999906	0.007416	0.007689	-0.007505	0.999942	
14037								0.056768	-0.076358	9.765047	0.999905	-0.011419	-0.007774	0.011476	0.999907	0.007392	0.007689	-0.007481	0.999942	
14038								0.072493	-0.086392	9.795400	0.999905	-0.011398	-0.007786	0.011456	0.999907	0.007432	0.007700	-0.007521	0.999942	
14039								0.066822	-0.079685	9.807505	0.999904	-0.011417	-0.007790	0.011475	0.999907	0.007415	0.007704	-0.007504	0.999942	
14040								0.073234	-0.079909	9.775451	0.999904	-0.011413	-0.007794	0.011471	0.999907	0.007443	0.007709	-0.007532	0.999942	
14041								0.067402	-0.073150	9.787556	0.999905	-0.011409	-0.007773	0.011466	0.999907	0.007428	0.007687	-0.007517	0.999942	
14042								0.075547	-0.095690	9.803294	0.999905	-0.011376	-0.007781	0.011434	0.999907	0.007435	0.007695	-0.007523	0.999942	
14043								0.077639	-0.084277	9.763377	0.999905	-0.011356	-0.007767	0.011414	0.999907	0.007432	0.007682	-0.007520	0.999942	
14044								0.070580	-0.082753	9.795445	0.999905	-0.011357	-0.007760	0.011414	0.999907	0.007415	0.007675	-0.007502	0.999942	
14045								0.071377	-0.076732	9.775490	0.999905	-0.011365	-0.007743	0.011422	0.999907	0.007433	0.007658	-0.007521	0.999942	
14046								0.073922	-0.093269	9.803329	0.999906	-0.011338	-0.007718	0.011396	0.999907	0.007448	0.007633	-0.007535	0.999942	
14047								0.064986	-0.069504	9.787599	0.999906	-0.011337	-0.007715	0.011395	0.999907	0.007445	0.007630	-0.007532	0.999943	
14048								0.092860	-0.086461	9.773812	0.999906	-0.011324	-0.007733	0.011381	0.999907	0.007452	0.007648	-0.007540	0.999942	
14049								0.074167	-0.086150	9.783388	0.999906	-0.011348	-0.007709	0.011405	0.999907	0.007459	0.007624	-0.007546	0.999942	
14050								0.055330	-0.085862	9.792964	0.999906	-0.011326	-0.007699	0.011384	0.999907	0.007471	0.007613	-0.007558	0.999942	
14051								0.090544	-0.090207	9.793802	0.999906	-0.011359	-0.007703	0.011416	0.999907	0.007473	0.007618	-0.007560	0.999942	
14052								0.067631	-0.078228	9.795503	0.999906	-0.011357	-0.007700	0.011415	0.999907	0.007470	0.007614	-0.007557	0.999942	
14053								0.081499	-0.065727	9.778070	0.999906	-0.011361	-0.007712	0.011418	0.999907	0.007465	0.007626	-0.007553	0.999942	
14054								0.067059	-0.076921	9.795517	0.999906	-0.011355	-0.007694	0.011413	0.999907	0.007466	0.007609	-0.007553	0.999943	
14055								0.065310	-0.081697	9.815492	0.999906	-0.011345	-0.007662	0.011403	0.999907	0.007468	0.007577	-0.007555	0.999943	
14056								0.072777	-0.076431	9.763479	0.999906	-0.011366	-0.007667	0.011423	0.999907	0.007451	0.007581	-0.007538	0.999943	
14057								0.101362	-0.079770	9.796382	0.999906	-0.011350	-0.007667	0.011407	0.999907	0.007446	0.007582	-0.007532	0.999943	
14058								0.065432	-0.074242	9.795549	0.999906	-0.011359	-0.007646	0.011416	0.999907	0.007449	0.007561	-0.007536	0.999943	
14059								0.100576	-0.078585	9.796400	0.999906	-0.011357	-0.007647	0.011414	0.999907	0.007462	0.007561	-0.007549	0.999943	
14060								0.064770	-0.073093	9.795562	0.999907	-0.011325	-0.007650	0.011382	0.999907	0.007453	0.007565	-0.007540	0.999943	
14061								0.091427	-0.095350	9.801772	0.999906	-0.011344	-0.007659	0.011401	0.999907	0.007451	0.007574	-0.007538	0.999943	
14062								0.068561	-0.083424	9.803457	0.999906	-0.011326	-0.007663	0.011384	0.999907	0.007461	0.007578	-0.007548	0.999943	
14063								0.086509	-0.082569	9.793906	0.999906	-0.011367	-0.007632	0.011424	0.999907	0.007455	0.007546	-0.007542	0.999943	
14064								0.063482	-0.070463	9.795590	0.999906	-0.011357	-0.007643	0.011413	0.999907	0.007432	0.007558	-0.007519	0.999943	
14065								0.099986	-0.069306	9.776480	0.999906	-0.011369	-0.007641	0.011426	0.999907	0.007449	0.007555	-0.007535	0.999943	
14066								0.069638	-0.070143	9.763549	0.999906	-0.011351	-0.007645	0.011408	0.999907	0.007459	0.007560	-0.007545	0.999943	
14067								0.081035	-0.068469	9.786050	0.999906	-0.011350	-0.007642	0.011407	0.999907	0.007457	0.007557	-0.007543	0.999943	
14068								0.072071	-0.085959	9.791419	0.999906	-0.011362	-0.007640	0.011419	0.999907	0.007473	0.007554	-0.007559	0.999943	
14069								0.071679	-0.085323	9.791427	0.999907	-0.011343	-0.007622	0.011400	0.999907	0.007455	0.007537	-0.007541	0.999943	
14070								0.075545	-0.096271	9.799325	0.999906	-0.011355	-0.007619	0.011412	0.999907	0.007471	0.007534	-0.007557	0.999943	
14071								0.075367	-0.095690	9.799332	0.999906	-0.011363	-0.007645	0.011420	0.999907	0.007463	0.007560	-0.007550	0.999943	
14072								0.062478	-0.060390	9.775665	0.999907	-0.011329	-0.007657	0.011386	0.999907	0.007485	0.007571	-0.007572	0.999943	
14073								0.094715	-0.088817	9.769821	0.999906	-0.011340	-0.007675	0.011397	0.999907	0.007447	0.007590	-0.007534	0.999943	
14074								0.070641	-0.082033	9.791463	0.999904	-0.011504	-0.007689	0.011562	0.999904	0.007618	0.007600	-0.007706	0.999941	
14075								0.058641	-0.082489	9.768973	0.999904	-0.011501	-0.007686	0.011560	0.999904	0.007616	0.007598	-0.007704	0.999941	
14076								0.082895	-0.074269	9.794003	0.999904	-0.011500	-0.007683	0.011558	0.999904	0.007614	0.007595	-0.007702	0.999941	
14077								0.089206	-0.074487	9.761962	0.999905	-0.011495	-0.007665	0.011553	0.999904	0.007615	0.007577	-0.007703	0.999942	
14078								0.074802	-0.085641	9.779417	0.999905	-0.011469	-0.007684	0.011527	0.999905	0.007604	0.007596	-0.007692	0.999942	
14079								0.087555	-0.078559	9.781949	0.999904	-0.011484	-0.007696	0.011542	0.999904	0.007618	0.007608	-0.007706	0.999941	
14080								0.076156	-0.065425	9.806109	0.999905	-0.011475	-0.007657	0.011533	0.999905	0.007591	0.007569	-0.007678	0.999942	
14081								0.085387	-0.082459	9.801943	0.999905	-0.011490	-0.007650	0.011548	0.999904	0.007592	0.007562	-0.007680	0.999942	
14082								0.073375	-0.082854	9.779452	0.999905	-0.011475	-0.007647	0.011533	0.999905	0.007571	0.007559	-0.007659	0.999942	
14083								0.073107	-0.082120	9.779460	0.999905	-0.011495	-0.007655	0.011553	0.999905	0.007570	0.007567	-0.007657	0.999942	
14084								0.084493	-0.080279	9.801969	0.999905	-0.011495	-0.007648	0.011553	0.999905	0.007552	0.007561	-0.007640	0.999942	
14085								0.079978	-0.068046	9.794073	0.999905	-0.011496	-0.007664	0.011554	0.999905	0.007563	0.007576	-0.007651	0.999942	
14086								0.077794	-0.086142	9.767413	0.999905	-0.011485	-0.007653	0.011543	0.999905	0.007512	0.007566	-0.007600	0.999942	
14087								0.085018	-0.072500	9.782018	0.999905	-0.011462	-0.007686	0.011519	0.999906	0.007499	0.007599	-0.007587	0.999942	
14088								0.076211	-0.089918	9.787406	0.999905	-0.011440	-0.007676	0.011498	0.999906	0.007512	0.007589	-0.007599	0.999942	
14089								0.083166	-0.076664	9.802009	0.999905	-0.011447	-0.007655	0.011504	0.999906	0.007515	0.007568	-0.007603	0.999942	
14090								0.075461	-0.088796	9.787423	0.999905	-0.011432	-0.007674	0.011490	0.999906	0.007523	0.007587	-0.007611	0.999942	
14091								0.065504	-0.070387	9.791589	0.999905	-0.011416	-0.007674	0.011474	0.999906	0.007518	0.007588	-0.007606	0.999942	
14092								0.100708	-0.074584	9.792487	0.999905	-0.011446	-0.007665	0.011503	0.999906	0.007522	0.007578	-0.007610	0.999942	
14093								0.056290	-0.087417	9.796986	0.999905	-0.011458	-0.007685	0.011516	0.999905	0.007567	0.007598	-0.007655	0.999942	
14094								0.083084	-0.068602	9.782063	0.999905	-0.011442	-0.007682	0.011500	0.999905	0.007547	0.007595	-0.007634	0.999942	
14095								0.074139	-0.085913	9.787458	0.999905	-0.011441	-0.007679	0.011499	0.999905	0.007545	0.007592	-0.007632	0.999942	
14096								0.055396	-0.085594	9.797008	0.999905	-0.011419	-0.007669	0.011477	0.999906	0.007558	0.007582	-0.007645	0.999942	
14097								0.087560	-0.073103	9.770018	0.999905	-0.011429	-0.007670	0.011487	0.999905	0.007589	0.007583	-0.007677	0.999942	
14098								0.086010	-0.077881	9.790004	0.999905	-0.011431	-0.007663	0.011489	0.999905	0.007571	0.007576	-0.007659	0.999942	
14099								0.067284	-0.077507	9.799552	0.999905	-0.011443	-0.007660	0.011501	0.999905	0.007588	0.007573	-0.007675	0.999942	
14100								0.066979	-0.076934	9.799558	0.999905	-0.011428	-0.007661	0.011486	0.999905	0.007583	0.007573	-0.007670	0.999942	
14101								0.077727	-0.088733	9.775439	0.999905	-0.011446	-0.007669	0.011504	0.999905	0.007581	0.007581	-0.007669	0.999942	
14102								0.073119	-0.076320	9.767531	0.999905	-0.011464	-0.007651	0.011522	0.999905	0.007536	0.007564	-0.007624	0.999942	
14103								0.067226	-0.069052	9.779604	0.999905	-0.011437	-0.007648	0.011494	0.999906	0.007497	0.007561	-0.007584	0.999943	
14104								0.064227	-0.079003	9.819575	0.999906	-0.011436	-0.007601	0.011493	0.999906	0.007521	0.007515	-0.007608	0.999943	
14105								0.081519	-0.091913	9.763419	0.999906	-0.011438	-0.007617	0.011495	0.999906	0.007532	0.007530	-0.007619	0.999943	
14106								0.088599	-0.078616	9.778012	0.999906	-0.011433	-0.007599	0.011490	0.999906	0.007533	0.007513	-0.007619	0.999943	
14107								0.075410	-0.084537	9.775494	0.999906	-0.011436	-0.007615	0.011493	0.999905	0.007543	0.007528	-0.007630	0.999943	
14108								0.086901	-0.082770	9.798008	0.999905	-0.011439	-0.007626	0.011496	0.999905	0.007539	0.007539	-0.007626	0.999942	
14109								0.051175	-0.077298	9.797100	0.999905	-0.011442	-0.007638	0.011499	0.999905	0.007535	0.007551	-0.007622	0.999942	
14110								0.083503	-0.064551	9.770113	0.999905	-0.011445	-0.007650	0.011503	0.999905	0.007530	0.007563	-0.007617	0.999942	
14111								0.073229	-0.087315	9.795506	0.999905	-0.011466	-0.007611	0.011523	0.999905	0.007539	0.007524	-0.007626	0.999943	
14112								0.074107	-0.081380	9.775531	0.999905	-0.011474	-0.007637	0.011532	0.999905	0.007532	0.007550	-0.007619	0.999942	
14113								0.064201	-0.062835	9.779666	0.999905	-0.011479	-0.007645	0.011537	0.999905	0.007512	0.007558	-0.007600	0.999943	
14114								0.072532	-0.085118	9.795531	0.999905	-0.011484	-0.007653	0.011542	0.999905	0.007492	0.007566	-0.007580	0.999943	
14115								0.068026	-0.072761	9.787609	0.999905	-0.011504	-0.007657	0.011561	0.999905	0.007475	0.007570	-0.007563	0.999943	
14116								0.077540	-0.089816	9.783494	0.999905	-0.011489	-0.007657	0.011546	0.999905	0.007470	0.007571	-0.007558	0.999943	
14117								0.084592	-0.076519	9.798079	0.999904	-0.011516	-0.007651	0.011574	0.999905	0.007490	0.007564	-0.007578	0.999943	
14118								0.058452	-0.088959	9.793039	0.999905	-0.011481	-0.007641	0.011538	0.999905	0.007484	0.007554	-0.007572	0.999943	
14119								0.076451	-0.088100	9.783518	0.999905	-0.011459	-0.007630	0.011516	0.999906	0.007497	0.007544	-0.007584	0.999943	
14120								0.057666	-0.087636	9.793055	0.999905	-0.011461	-0.007620	0.011518	0.999906	0.007465	0.007533	-0.007552	0.999943	
14121								0.077627	-0.067668	9.810162	0.999905	-0.011478	-0.007632	0.011535	0.999906	0.007478	0.007545	-0.007566	0.999943	
14122								0.075452	-0.086097	9.783544	0.999905	-0.011473	-0.007614	0.011530	0.999906	0.007479	0.007527	-0.007566	0.999943	
14123								0.070889	-0.073873	9.775614	0.999905	-0.011446	-0.007632	0.011503	0.999906	0.007468	0.007546	-0.007555	0.999943	
14124								0.087936	-0.078269	9.786082	0.999905	-0.011433	-0.007651	0.011491	0.999906	0.007476	0.007565	-0.007563	0.999943	
14125								0.069256	-0.077944	9.795614	0.999906	-0.011428	-0.007634	0.011485	0.999906	0.007476	0.007548	-0.007563	0.999943	
14126								0.081598	-0.070913	9.798146	0.999906	-0.011431	-0.007602	0.011488	0.999906	0.007498	0.007516	-0.007584	0.999943	
14127								0.064226	-0.065369	9.787687	0.999905	-0.011427	-0.007650	0.011485	0.999906	0.007500	0.007564	-0.007588	0.999943	
14128								0.064118	-0.064777	9.787692	0.999905	-0.011456	-0.007640	0.011513	0.999906	0.007505	0.007553	-0.007592	0.999943	
14129								0.077781	-0.093574	9.791535	0.999905	-0.011449	-0.007627	0.011507	0.999906	0.007520	0.007540	-0.007608	0.999943	
14130								0.060234	-0.087998	9.781077	0.999905	-0.011463	-0.007620	0.011521	0.999905	0.007521	0.007533	-0.007609	0.999943	
14131								0.072735	-0.080926	9.783608	0.999906	-0.011441	-0.007610	0.011498	0.999906	0.007534	0.007523	-0.007621	0.999943	
14132								0.065182	-0.093069	9.769045	0.999905	-0.011434	-0.007640	0.011491	0.999906	0.007524	0.007553	-0.007611	0.999943	
14133								0.068114	-0.068161	9.775675	0.999905	-0.011431	-0.007641	0.011488	0.999906	0.007537	0.007554	-0.007624	0.999942	
14134								0.079301	-0.066479	9.798196	0.999906	-0.011434	-0.007609	0.011492	0.999905	0.007559	0.007522	-0.007646	0.999942	
14135								0.064167	-0.091437	9.769068	0.999906	-0.011404	-0.007613	0.011461	0.999906	0.007550	0.007526	-0.007637	0.999943	
14136								0.069918	-0.083387	9.803634	0.999906	-0.011412	-0.007596	0.011470	0.999906	0.007569	0.007508	-0.007656	0.999943	
14137								0.087958	-0.082500	9.794123	0.999906	-0.011432	-0.007600	0.011490	0.999905	0.007552	0.007513	-0.007639	0.999943	
14138								0.072921	-0.107399	9.764999	0.999906	-0.011426	-0.007586	0.011483	0.999905	0.007568	0.007499	-0.007654	0.999943	
14139								0.070071	-0.076213	9.783666	0.999906	-0.011426	-0.007579	0.011484	0.999906	0.007550	0.007492	-0.007637	0.999943	
14140								0.082621	-0.068865	9.786199	0.999906	-0.011397	-0.007579	0.011454	0.999906	0.007527	0.007493	-0.007613	0.999943	
14141								0.068252	-0.079916	9.803674	0.999906	-0.011416	-0.007587	0.011473	0.999906	0.007525	0.007501	-0.007612	0.999943	
14142								0.060817	-0.092079	9.789116	0.999906	-0.011407	-0.007621	0.011465	0.999906	0.007530	0.007534	-0.007617	0.999943	
14143								0.067340	-0.092431	9.757092	0.999907	-0.011368	-0.007595	0.011425	0.999906	0.007527	0.007509	-0.007613	0.999943	
14144								0.074219	-0.079255	9.771661	0.999907	-0.011373	-0.007586	0.011430	0.999906	0.007576	0.007499	-0.007662	0.999943	
14145								0.091052	-0.083705	9.782148	0.999906	-0.011379	-0.007590	0.011436	0.999906	0.007541	0.007503	-0.007627	0.999943	
14146								0.072507	-0.083052	9.791671	0.999906	-0.011374	-0.007616	0.011431	0.999906	0.007516	0.007529	-0.007602	0.999943	
14147								0.055174	-0.077287	9.781197	0.999906	-0.011373	-0.007613	0.011430	0.999906	0.007514	0.007526	-0.007600	0.999943	
14148								0.090407	-0.081369	9.782174	0.999906	-0.011372	-0.007610	0.011429	0.999906	0.007512	0.007524	-0.007598	0.999943	
14149								0.081536	-0.099015	9.787616	0.999906	-0.011381	-0.007615	0.011439	0.999906	0.007559	0.007528	-0.007645	0.999942	
14150								0.072681	-0.075464	9.771703	0.999906	-0.011367	-0.007611	0.011424	0.999906	0.007539	0.007525	-0.007625	0.999943	
14151								0.066896	-0.068590	9.783744	0.999907	-0.011333	-0.007623	0.011391	0.999907	0.007561	0.007536	-0.007647	0.999942	
14152								0.089297	-0.079343	9.782201	0.999906	-0.011362	-0.007613	0.011419	0.999906	0.007565	0.007526	-0.007651	0.999942	
14153								0.071733	-0.073727	9.771723	0.999907	-0.011342	-0.007599	0.011399	0.999906	0.007563	0.007513	-0.007648	0.999943	
14154								0.075697	-0.084513	9.779695	0.999907	-0.011346	-0.007607	0.011403	0.999907	0.007543	0.007520	-0.007629	0.999943	
14155								0.068010	-0.096503	9.765148	0.999907	-0.011342	-0.007585	0.011399	0.999907	0.007528	0.007499	-0.007614	0.999943	
14156								0.083526	-0.064804	9.774273	0.999907	-0.011363	-0.007586	0.011420	0.999907	0.007496	0.007500	-0.007582	0.999943	
14157								0.069248	-0.075872	9.791753	0.999906	-0.011385	-0.007612	0.011442	0.999906	0.007507	0.007526	-0.007594	0.999943	
14158								0.061741	-0.088215	9.777203	0.999907	-0.011346	-0.007609	0.011404	0.999907	0.007532	0.007523	-0.007618	0.999943	
14159								0.055987	-0.081447	9.789239	0.999906	-0.011384	-0.007629	0.011442	0.999906	0.007531	0.007542	-0.007618	0.999943	
14160								0.068566	-0.074193	9.791770	0.999906	-0.011366	-0.007611	0.011423	0.999907	0.007513	0.007525	-0.007599	0.999943	
14161								0.066441	-0.092526	9.765197	0.999906	-0.011384	-0.007619	0.011442	0.999906	0.007512	0.007532	-0.007598	0.999943	
14162								0.082128	-0.102034	9.795699	0.999906	-0.011389	-0.007627	0.011447	0.999906	0.007492	0.007541	-0.007578	0.999943	
14163								0.087380	-0.066398	9.762289	0.999906	-0.011390	-0.007620	0.011447	0.999907	0.007474	0.007534	-0.007561	0.999943	
14164								0.067453	-0.071193	9.791800	0.999906	-0.011394	-0.007631	0.011451	0.999907	0.007470	0.007545	-0.007556	0.999943	
14165								0.059970	-0.083398	9.777257	0.999906	-0.011396	-0.007647	0.011453	0.999906	0.007480	0.007561	-0.007567	0.999943	
14166								0.084210	-0.074896	9.802309	0.999906	-0.011382	-0.007644	0.011439	0.999907	0.007460	0.007558	-0.007546	0.999943	
14167								0.058305	-0.087212	9.797272	0.999906	-0.011390	-0.007670	0.011447	0.999907	0.007452	0.007584	-0.007539	0.999943	
14168								0.071130	-0.080198	9.799799	0.999906	-0.011374	-0.007696	0.011431	0.999907	0.007490	0.007611	-0.007578	0.999942	
14169								0.076602	-0.086060	9.787778	0.999906	-0.011361	-0.007715	0.011419	0.999907	0.007498	0.007629	-0.007585	0.999942	
14170								0.064850	-0.086744	9.765261	0.999906	-0.011364	-0.007727	0.011422	0.999907	0.007493	0.007641	-0.007581	0.999942	
14171								0.087851	-0.083548	9.810315	0.999906	-0.011347	-0.007731	0.011405	0.999907	0.007504	0.007645	-0.007591	0.999942	
14172								0.061915	-0.096034	9.805279	0.999906	-0.011351	-0.007742	0.011409	0.999907	0.007499	0.007657	-0.007587	0.999942	
14173								0.062846	-0.090052	9.785286	0.999906	-0.011332	-0.007725	0.011390	0.999907	0.007481	0.007639	-0.007569	0.999942	
14174								0.063743	-0.084324	9.765290	0.999906	-0.011341	-0.007730	0.011399	0.999907	0.007528	0.007644	-0.007616	0.999942	
14175								0.065291	-0.064734	9.791860	0.999906	-0.011331	-0.007741	0.011389	0.999907	0.007506	0.007655	-0.007593	0.999942	
14176								0.079213	-0.093416	9.795809	0.999906	-0.011327	-0.007745	0.011385	0.999907	0.007534	0.007659	-0.007622	0.999942	
14177								0.069065	-0.075067	9.799854	0.999906	-0.011328	-0.007739	0.011386	0.999907	0.007517	0.007653	-0.007604	0.999942	
14178								0.084136	-0.098331	9.783807	0.999905	-0.011362	-0.007739	0.011420	0.999907	0.007503	0.007653	-0.007591	0.999942	
14179								0.052575	-0.063451	9.769359	0.999906	-0.011345	-0.007743	0.011403	0.999907	0.007513	0.007657	-0.007601	0.999942	
14180								0.073843	-0.079370	9.787856	0.999906	-0.011332	-0.007762	0.011390	0.999907	0.007521	0.007676	-0.007608	0.999942	
14181								0.043547	-0.080380	9.774834	0.999906	-0.011326	-0.007745	0.011384	0.999907	0.007522	0.007659	-0.007609	0.999942	
14182								0.077459	-0.089738	9.795857	0.999906	-0.011338	-0.007742	0.011397	0.999907	0.007538	0.007656	-0.007626	0.999942	
14183								0.060127	-0.084207	9.785355	0.999905	-0.011346	-0.007768	0.011405	0.999907	0.007531	0.007682	-0.007619	0.999941	
14184								0.091249	-0.076850	9.778385	0.999905	-0.011342	-0.007773	0.011401	0.999906	0.007560	0.007687	-0.007647	0.999941	
14185								0.072606	-0.076547	9.787887	0.999905	-0.011347	-0.007781	0.011406	0.999907	0.007540	0.007695	-0.007628	0.999941	
14186								0.072248	-0.075839	9.787896	0.999905	-0.011356	-0.007760	0.011415	0.999906	0.007544	0.007674	-0.007631	0.999941	
14187								0.089007	-0.080146	9.798416	0.999906	-0.011341	-0.007760	0.011399	0.999907	0.007538	0.007674	-0.007626	0.999941	
14188								0.058695	-0.081094	9.785390	0.999906	-0.011340	-0.007757	0.011398	0.999907	0.007536	0.007671	-0.007624	0.999942	
14189								0.063983	-0.086634	9.773384	0.999905	-0.011345	-0.007765	0.011403	0.999907	0.007516	0.007679	-0.007604	0.999942	
14190								0.063679	-0.085881	9.773392	0.999906	-0.011310	-0.007754	0.011368	0.999907	0.007511	0.007669	-0.007598	0.999942	
14191								0.070616	-0.072379	9.787934	0.999906	-0.011309	-0.007751	0.011367	0.999907	0.007509	0.007666	-0.007596	0.999942	
14192								0.078928	-0.094651	9.803934	0.999906	-0.011329	-0.007756	0.011387	0.999907	0.007492	0.007670	-0.007579	0.999942	
14193								0.065689	-0.059441	9.779951	0.999906	-0.011309	-0.007742	0.011367	0.999907	0.007489	0.007656	-0.007576	0.999942	
14194								0.061043	-0.088355	9.793434	0.999904	-0.011534	-0.007706	0.011592	0.999904	0.007549	0.007619	-0.007638	0.999942	
14195								0.074762	-0.076031	9.775953	0.999904	-0.011525	-0.007693	0.011584	0.999904	0.007565	0.007605	-0.007653	0.999942	
14196								0.070279	-0.104995	9.789438	0.999904	-0.011535	-0.007719	0.011594	0.999904	0.007558	0.007631	-0.007647	0.999942	
14197								0.074438	-0.074838	9.775965	0.999904	-0.011539	-0.007734	0.011597	0.999904	0.007569	0.007646	-0.007658	0.999941	
14198								0.068713	-0.067963	9.787979	0.999903	-0.011544	-0.007745	0.011602	0.999904	0.007564	0.007657	-0.007653	0.999941	
14199								0.068426	-0.067374	9.787985	0.999904	-0.011523	-0.007735	0.011582	0.999904	0.007577	0.007647	-0.007666	0.999941	
14200								0.071178	-0.083394	9.816005	0.999904	-0.011513	-0.007746	0.011572	0.999905	0.007554	0.007658	-0.007643	0.999941	
14201								0.076670	-0.088957	9.804005	0.999904	-0.011508	-0.007779	0.011566	0.999905	0.007559	0.007691	-0.007648	0.999941	
14202								0.073556	-0.071636	9.775995	0.999903	-0.011510	-0.007791	0.011569	0.999905	0.007555	0.007703	-0.007644	0.999941	
14203								0.082001	-0.093925	9.792013	0.999903	-0.011497	-0.007806	0.011556	0.999905	0.007547	0.007718	-0.007636	0.999941	
14204								0.076130	-0.087068	9.804026	0.999903	-0.011506	-0.007789	0.011564	0.999905	0.007566	0.007701	-0.007655	0.999941	
14205								0.068474	-0.099358	9.789510	0.999904	-0.011489	-0.007789	0.011548	0.999905	0.007561	0.007701	-0.007650	0.999941	
14206								0.072444	-0.069210	9.776021	0.999904	-0.011473	-0.007793	0.011532	0.999905	0.007571	0.007705	-0.007660	0.999941	
14207								0.064914	-0.081406	9.761505	0.999904	-0.011494	-0.007797	0.011553	0.999905	0.007555	0.007710	-0.007644	0.999941	
14208								0.059023	-0.074255	9.773517	0.999904	-0.011496	-0.007786	0.011555	0.999905	0.007522	0.007699	-0.007611	0.999941	
14209								0.070175	-0.072094	9.796058	0.999904	-0.011490	-0.007769	0.011548	0.999905	0.007523	0.007682	-0.007612	0.999942	
14210								0.081011	-0.084000	9.772062	0.999904	-0.011479	-0.007784	0.011537	0.999905	0.007515	0.007697	-0.007604	0.999941	
14211								0.063680	-0.078422	9.761537	0.999904	-0.011498	-0.007792	0.011557	0.999905	0.007514	0.007705	-0.007603	0.999941	
14212								0.083476	-0.058337	9.778583	0.999904	-0.011477	-0.007778	0.011536	0.999905	0.007512	0.007691	-0.007601	0.999942	
14213								0.062930	-0.077121	9.761552	0.999904	-0.011456	-0.007764	0.011515	0.999906	0.007509	0.007677	-0.007598	0.999942	
14214								0.074096	-0.075024	9.784095	0.999904	-0.011474	-0.007753	0.011532	0.999905	0.007495	0.007666	-0.007584	0.999942	
14215								0.090960	-0.079114	9.794639	0.999904	-0.011466	-0.007764	0.011524	0.999906	0.007472	0.007677	-0.007561	0.999942	
14216								0.067947	-0.067206	9.796108	0.999904	-0.011496	-0.007754	0.011554	0.999905	0.007476	0.007667	-0.007565	0.999942	
14217								0.064629	-0.090934	9.789618	0.999904	-0.011497	-0.007750	0.011555	0.999905	0.007475	0.007664	-0.007563	0.999942	
14218								0.066914	-0.079902	9.749593	0.999904	-0.011504	-0.007761	0.011562	0.999905	0.007470	0.007675	-0.007559	0.999942	
14219								0.078237	-0.077757	9.772136	0.999904	-0.011490	-0.007758	0.011548	0.999906	0.007449	0.007671	-0.007538	0.999942	
14220								0.085285	-0.064192	9.786657	0.999904	-0.011476	-0.007777	0.011534	0.999906	0.007457	0.007690	-0.007546	0.999942	
14221								0.063767	-0.088037	9.789650	0.999904	-0.011453	-0.007787	0.011511	0.999906	0.007416	0.007702	-0.007505	0.999942	
14222								0.076393	-0.080852	9.792175	0.999904	-0.011461	-0.007793	0.011519	0.999906	0.007463	0.007706	-0.007552	0.999942	
14223								0.076035	-0.080507	9.792180	0.999903	-0.011520	-0.007776	0.011578	0.999905	0.007473	0.007689	-0.007562	0.999942	
14224								0.058527	-0.075003	9.781645	0.999904	-0.011489	-0.007779	0.011547	0.999905	0.007465	0.007693	-0.007554	0.999942	
14225								0.075372	-0.079224	9.792196	0.999904	-0.011502	-0.007773	0.011560	0.999905	0.007466	0.007686	-0.007555	0.999942	
14226								0.079449	-0.090109	9.800229	0.999904	-0.011489	-0.007792	0.011547	0.999905	0.007474	0.007705	-0.007563	0.999942	
14227								0.063408	-0.079453	9.769672	0.999903	-0.011507	-0.007800	0.011566	0.999905	0.007473	0.007713	-0.007562	0.999942	
14228								0.074636	-0.077407	9.792216	0.999904	-0.011502	-0.007782	0.011560	0.999905	0.007473	0.007695	-0.007563	0.999942	
14229								0.074278	-0.077010	9.792222	0.999903	-0.011511	-0.007787	0.011570	0.999905	0.007520	0.007700	-0.007610	0.999941	
14230								0.071119	-0.100723	9.785750	0.999903	-0.011537	-0.007798	0.011595	0.999905	0.007470	0.007711	-0.007560	0.999942	
14231								0.075083	-0.070538	9.772216	0.999903	-0.011511	-0.007796	0.011570	0.999905	0.007514	0.007709	-0.007603	0.999941	
14232								0.060794	-0.081848	9.789722	0.999903	-0.011521	-0.007822	0.011580	0.999905	0.007506	0.007734	-0.007596	0.999941	
14233								0.076615	-0.091303	9.820298	0.999902	-0.011558	-0.007844	0.011617	0.999904	0.007521	0.007757	-0.007611	0.999941	
14234								0.073288	-0.074129	9.792252	0.999902	-0.011567	-0.007823	0.011626	0.999904	0.007524	0.007736	-0.007615	0.999941	
14235								0.077242	-0.084886	9.800293	0.999902	-0.011573	-0.007831	0.011632	0.999904	0.007504	0.007743	-0.007595	0.999941	
14236								0.082523	-0.090389	9.788316	0.999902	-0.011591	-0.007820	0.011650	0.999904	0.007491	0.007732	-0.007581	0.999941	
14237								0.096115	-0.077962	9.770822	0.999902	-0.011597	-0.007784	0.011655	0.999904	0.007497	0.007696	-0.007587	0.999942	
14238								0.070453	-0.076686	9.812304	0.999903	-0.011548	-0.007803	0.011607	0.999904	0.007531	0.007715	-0.007621	0.999941	
14239								0.095597	-0.076954	9.770835	0.999903	-0.011539	-0.007814	0.011598	0.999905	0.007508	0.007726	-0.007598	0.999941	
14240								0.076922	-0.076680	9.780309	0.999903	-0.011566	-0.007811	0.011625	0.999904	0.007544	0.007723	-0.007634	0.999941	
14241								0.075271	-0.081368	9.800338	0.999903	-0.011547	-0.007797	0.011606	0.999904	0.007541	0.007709	-0.007631	0.999941	
14242								0.076153	-0.075481	9.780324	0.999903	-0.011547	-0.007790	0.011606	0.999904	0.007524	0.007702	-0.007614	0.999941	
14243								0.085843	-0.092420	9.776390	0.999903	-0.011555	-0.007812	0.011614	0.999904	0.007502	0.007725	-0.007592	0.999941	
14244								0.070127	-0.067533	9.792322	0.999903	-0.011556	-0.007805	0.011614	0.999905	0.007484	0.007718	-0.007574	0.999942	
14245								0.079694	-0.084479	9.788392	0.999903	-0.011541	-0.007802	0.011599	0.999905	0.007464	0.007715	-0.007554	0.999942	
14246								0.037838	-0.087026	9.752780	0.999903	-0.011552	-0.007800	0.011610	0.999905	0.007480	0.007713	-0.007570	0.999942	
14247								0.077879	-0.088470	9.808431	0.999903	-0.011540	-0.007819	0.011598	0.999905	0.007488	0.007731	-0.007578	0.999941	
14248								0.074553	-0.071143	9.780369	0.999903	-0.011573	-0.007800	0.011632	0.999905	0.007462	0.007713	-0.007552	0.999942	
14249								0.064312	-0.093760	9.805931	0.999903	-0.011581	-0.007787	0.011639	0.999904	0.007496	0.007699	-0.007586	0.999942	
14250								0.073819	-0.070055	9.780383	0.999903	-0.011570	-0.007801	0.011629	0.999904	0.007489	0.007714	-0.007579	0.999942	
14251								0.082148	-0.092296	9.796485	0.999903	-0.011565	-0.007784	0.011623	0.999904	0.007490	0.007697	-0.007579	0.999942	
14252								0.070170	-0.093190	9.773951	0.999903	-0.011542	-0.007774	0.011601	0.999905	0.007503	0.007686	-0.007592	0.999942	
14253								0.083888	-0.080932	9.756450	0.999904	-0.011520	-0.007764	0.011578	0.999905	0.007515	0.007676	-0.007605	0.999942	
14254								0.072296	-0.067680	9.780411	0.999903	-0.011535	-0.007754	0.011593	0.999905	0.007501	0.007666	-0.007590	0.999942	
14255								0.065233	-0.065710	9.812420	0.999903	-0.011563	-0.007787	0.011621	0.999904	0.007479	0.007700	-0.007569	0.999942	
14256								0.063425	-0.084264	9.785958	0.999903	-0.011541	-0.007777	0.011599	0.999905	0.007492	0.007690	-0.007582	0.999942	
14257								0.057430	-0.077226	9.797942	0.999903	-0.011544	-0.007766	0.011602	0.999905	0.007459	0.007679	-0.007549	0.999942	
14258								0.069879	-0.069741	9.800468	0.999903	-0.011544	-0.007759	0.011602	0.999905	0.007442	0.007672	-0.007532	0.999942	
14259								0.079496	-0.086742	9.796558	0.999904	-0.011514	-0.007763	0.011572	0.999905	0.007434	0.007676	-0.007523	0.999942	
14260								0.057653	-0.069808	9.777937	0.999904	-0.011524	-0.007741	0.011581	0.999905	0.007438	0.007655	-0.007527	0.999942	
14261								0.074459	-0.074008	9.788518	0.999903	-0.011528	-0.007753	0.011585	0.999905	0.007434	0.007666	-0.007523	0.999942	
14262								0.061453	-0.079949	9.786007	0.999903	-0.011532	-0.007764	0.011590	0.999905	0.007429	0.007678	-0.007519	0.999942	
14263								0.062628	-0.074135	9.765984	0.999903	-0.011540	-0.007790	0.011598	0.999905	0.007422	0.007704	-0.007512	0.999942	
14264								0.079380	-0.078197	9.776569	0.999903	-0.011563	-0.007743	0.011621	0.999905	0.007401	0.007657	-0.007490	0.999943	
14265								0.073343	-0.071186	9.788547	0.999903	-0.011551	-0.007762	0.011608	0.999905	0.007408	0.007675	-0.007498	0.999942	
14266								0.060321	-0.077276	9.786036	0.999903	-0.011549	-0.007762	0.011607	0.999905	0.007422	0.007676	-0.007511	0.999942	
14267								0.064338	-0.088143	9.794105	0.999903	-0.011549	-0.007759	0.011607	0.999905	0.007420	0.007672	-0.007510	0.999942	
14268								0.059764	-0.075951	9.786049	0.999903	-0.011540	-0.007770	0.011597	0.999905	0.007398	0.007684	-0.007487	0.999942	
14269								0.076605	-0.080106	9.796637	0.999903	-0.011533	-0.007756	0.011590	0.999905	0.007414	0.007670	-0.007503	0.999942	
14270								0.089051	-0.073014	9.799161	0.999903	-0.011545	-0.007753	0.011603	0.999905	0.007430	0.007667	-0.007519	0.999942	
14271								0.090229	-0.067208	9.779135	0.999903	-0.011544	-0.007794	0.011602	0.999905	0.007402	0.007707	-0.007491	0.999942	
14272								0.070052	-0.086246	9.762142	0.999903	-0.011549	-0.007784	0.011607	0.999905	0.007451	0.007697	-0.007541	0.999942	
14273								0.071329	-0.066521	9.788595	0.999903	-0.011570	-0.007788	0.011628	0.999905	0.007434	0.007701	-0.007524	0.999942	
14274								0.066885	-0.095240	9.802223	0.999902	-0.011605	-0.007788	0.011663	0.999904	0.007421	0.007701	-0.007511	0.999942	
14275								0.082085	-0.077819	9.764679	0.999902	-0.011605	-0.007808	0.011664	0.999904	0.007447	0.007720	-0.007538	0.999942	
14276								0.070698	-0.064803	9.788611	0.999902	-0.011586	-0.007816	0.011645	0.999904	0.007473	0.007729	-0.007563	0.999942	
14277								0.067689	-0.088644	9.782207	0.999902	-0.011595	-0.007842	0.011653	0.999904	0.007465	0.007755	-0.007556	0.999941	
14278								0.056281	-0.075239	9.806140	0.999902	-0.011581	-0.007838	0.011639	0.999905	0.007444	0.007751	-0.007535	0.999942	
14279								0.085657	-0.086986	9.772776	0.999902	-0.011577	-0.007843	0.011636	0.999904	0.007473	0.007756	-0.007563	0.999941	
14280								0.066902	-0.086863	9.782228	0.999903	-0.011555	-0.007833	0.011614	0.999905	0.007485	0.007746	-0.007575	0.999941	
14281								0.073451	-0.087589	9.750239	0.999902	-0.011568	-0.007830	0.011627	0.999904	0.007501	0.007743	-0.007592	0.999941	
14282								0.053601	-0.092558	9.779724	0.999902	-0.011558	-0.007867	0.011618	0.999904	0.007522	0.007779	-0.007612	0.999941	
14283								0.060587	-0.079097	9.794206	0.999902	-0.011567	-0.007846	0.011627	0.999904	0.007526	0.007758	-0.007616	0.999941	
14284								0.060228	-0.078388	9.794214	0.999902	-0.011572	-0.007854	0.011631	0.999904	0.007506	0.007766	-0.007597	0.999941	
14285								0.065558	-0.083900	9.782263	0.999902	-0.011573	-0.007847	0.011632	0.999904	0.007489	0.007760	-0.007579	0.999941	
14286								0.069582	-0.094845	9.790347	0.999902	-0.011582	-0.007852	0.011641	0.999904	0.007536	0.007764	-0.007626	0.999941	
14287								0.083404	-0.082702	9.772832	0.999902	-0.011582	-0.007849	0.011641	0.999904	0.007534	0.007761	-0.007624	0.999941	
14288								0.063353	-0.087463	9.802319	0.999902	-0.011582	-0.007845	0.011641	0.999904	0.007531	0.007757	-0.007622	0.999941	
14289								0.071480	-0.068602	9.796763	0.999902	-0.011584	-0.007834	0.011643	0.999904	0.007499	0.007747	-0.007589	0.999941	
14290								0.071227	-0.067849	9.796771	0.999902	-0.011572	-0.007853	0.011631	0.999904	0.007506	0.007765	-0.007597	0.999941	
14291								0.076545	-0.073601	9.784821	0.999902	-0.011581	-0.007832	0.011640	0.999904	0.007510	0.007744	-0.007600	0.999941	
14292								0.049263	-0.091261	9.799836	0.999902	-0.011588	-0.007839	0.011646	0.999904	0.007489	0.007751	-0.007580	0.999941	
14293								0.070328	-0.065978	9.796790	0.999902	-0.011583	-0.007844	0.011642	0.999904	0.007518	0.007756	-0.007609	0.999941	
14294								0.072878	-0.096183	9.778456	0.999902	-0.011587	-0.007855	0.011646	0.999904	0.007514	0.007767	-0.007604	0.999941	
14295								0.057045	-0.071444	9.794286	0.999902	-0.011586	-0.007852	0.011645	0.999904	0.007511	0.007764	-0.007602	0.999941	
14296								0.076636	-0.106294	9.786559	0.999902	-0.011586	-0.007848	0.011645	0.999904	0.007509	0.007760	-0.007600	0.999941	
14297								0.080464	-0.076164	9.772910	0.999902	-0.011585	-0.007845	0.011644	0.999904	0.007508	0.007758	-0.007598	0.999941	
14298								0.061774	-0.075905	9.782353	0.999902	-0.011602	-0.007857	0.011662	0.999904	0.007522	0.007769	-0.007612	0.999941	
14299								0.081292	-0.069775	9.752884	0.999902	-0.011609	-0.007860	0.011668	0.999904	0.007486	0.007773	-0.007577	0.999941	
14300								0.088443	-0.096785	9.789112	0.999902	-0.011601	-0.007870	0.011660	0.999904	0.007463	0.007783	-0.007554	0.999941	
14301								0.084001	-0.084592	9.781030	0.999901	-0.011610	-0.007896	0.011668	0.999904	0.007456	0.007809	-0.007548	0.999941	
14302								0.059680	-0.077908	9.802422	0.999902	-0.011604	-0.007878	0.011663	0.999904	0.007457	0.007791	-0.007548	0.999941	
14303								0.076211	-0.096200	9.766585	0.999901	-0.011624	-0.007882	0.011683	0.999904	0.007440	0.007795	-0.007532	0.999941	
14304								0.081771	-0.087652	9.801097	0.999902	-0.011603	-0.007872	0.011661	0.999904	0.007453	0.007785	-0.007544	0.999941	
14305								0.047198	-0.077525	9.779888	0.999902	-0.011607	-0.007883	0.011665	0.999904	0.007448	0.007796	-0.007539	0.999941	
14306								0.086936	-0.092721	9.789165	0.999901	-0.011611	-0.007894	0.011670	0.999904	0.007443	0.007807	-0.007535	0.999941	
14307								0.059432	-0.069570	9.782415	0.999902	-0.011601	-0.007862	0.011660	0.999904	0.007447	0.007775	-0.007538	0.999941	
14308								0.076233	-0.073609	9.793033	0.999902	-0.011611	-0.007884	0.011669	0.999904	0.007425	0.007797	-0.007516	0.999941	
14309								0.074689	-0.092255	9.766635	0.999901	-0.011651	-0.007922	0.011710	0.999904	0.007437	0.007834	-0.007529	0.999941	
14310								0.068893	-0.085321	9.778586	0.999901	-0.011617	-0.007911	0.011675	0.999904	0.007431	0.007823	-0.007523	0.999941	
14311								0.080115	-0.082969	9.801151	0.999901	-0.011607	-0.007921	0.011666	0.999905	0.007408	0.007835	-0.007500	0.999941	
14312								0.058383	-0.066050	9.782445	0.999901	-0.011606	-0.007918	0.011665	0.999905	0.007406	0.007832	-0.007498	0.999941	
14313								0.079451	-0.081631	9.801168	0.999902	-0.011566	-0.007897	0.011624	0.999905	0.007419	0.007810	-0.007510	0.999941	
14314								0.071853	-0.094055	9.786721	0.999903	-0.011537	-0.007780	0.011595	0.999905	0.007488	0.007693	-0.007578	0.999942	
14315								0.061555	-0.075660	9.790567	0.999903	-0.011522	-0.007781	0.011581	0.999905	0.007483	0.007694	-0.007573	0.999942	
14316								0.066871	-0.081351	9.778634	0.999903	-0.011537	-0.007774	0.011595	0.999905	0.007485	0.007687	-0.007574	0.999942	
14317								0.089382	-0.091704	9.777320	0.999903	-0.011526	-0.007785	0.011584	0.999905	0.007461	0.007698	-0.007551	0.999942	
14318								0.060602	-0.073565	9.790589	0.999903	-0.011551	-0.007760	0.011609	0.999905	0.007469	0.007673	-0.007558	0.999942	
14319								0.065848	-0.079270	9.778658	0.999903	-0.011521	-0.007764	0.011579	0.999905	0.007461	0.007677	-0.007550	0.999942	
14320								0.074202	-0.101426	9.794881	0.999903	-0.011552	-0.007753	0.011610	0.999905	0.007465	0.007666	-0.007555	0.999942	
14321								0.058132	-0.076877	9.810656	0.999904	-0.011521	-0.007732	0.011579	0.999905	0.007496	0.007645	-0.007585	0.999942	
14322								0.088951	-0.069424	9.803752	0.999904	-0.011535	-0.007725	0.011593	0.999905	0.007497	0.007638	-0.007586	0.999942	
14323								0.068737	-0.088426	9.786796	0.999904	-0.011522	-0.007740	0.011580	0.999905	0.007490	0.007653	-0.007579	0.999942	
14324								0.082540	-0.076043	9.769270	0.999904	-0.011519	-0.007722	0.011576	0.999905	0.007491	0.007635	-0.007580	0.999942	
14325								0.062339	-0.080734	9.798748	0.999904	-0.011548	-0.007708	0.011606	0.999905	0.007480	0.007621	-0.007569	0.999942	
14326								0.077735	-0.104015	9.783001	0.999903	-0.011542	-0.007733	0.011600	0.999905	0.007454	0.007647	-0.007543	0.999942	
14327								0.080547	-0.078788	9.789342	0.999903	-0.011521	-0.007766	0.011579	0.999905	0.007441	0.007680	-0.007530	0.999942	
14328								0.061778	-0.078495	9.798770	0.999904	-0.011488	-0.007726	0.011546	0.999906	0.007458	0.007640	-0.007547	0.999942	
14329								0.091288	-0.075992	9.811919	0.999904	-0.011492	-0.007737	0.011549	0.999906	0.007454	0.007651	-0.007542	0.999942	
14330								0.078290	-0.081998	9.809413	0.999904	-0.011510	-0.007745	0.011568	0.999905	0.007453	0.007658	-0.007541	0.999942	
14331								0.053568	-0.089587	9.784347	0.999904	-0.011501	-0.007708	0.011558	0.999906	0.007440	0.007622	-0.007529	0.999943	
14332								0.077373	-0.080504	9.809433	0.999904	-0.011485	-0.007704	0.011542	0.999906	0.007420	0.007619	-0.007508	0.999943	
14333								0.078429	-0.074706	9.789391	0.999904	-0.011489	-0.007716	0.011546	0.999906	0.007415	0.007630	-0.007504	0.999943	
14334								0.065379	-0.080623	9.786886	0.999904	-0.011475	-0.007712	0.011532	0.999906	0.007395	0.007626	-0.007483	0.999943	
14335								0.052330	-0.086632	9.784381	0.999904	-0.011493	-0.007723	0.011550	0.999906	0.007409	0.007637	-0.007498	0.999943	
14336								0.083218	-0.079024	9.777485	0.999904	-0.011503	-0.007698	0.011560	0.999906	0.007398	0.007612	-0.007486	0.999943	
14337								0.068787	-0.089992	9.795032	0.999904	-0.011480	-0.007717	0.011537	0.999906	0.007387	0.007631	-0.007475	0.999943	
14338								0.087112	-0.089041	9.785624	0.999904	-0.011485	-0.007732	0.011542	0.999906	0.007398	0.007646	-0.007487	0.999943	
14339								0.082659	-0.077006	9.777506	0.999904	-0.011445	-0.007753	0.011502	0.999907	0.007384	0.007668	-0.007473	0.999943	
14340								0.068337	-0.087930	9.795054	0.999904	-0.011446	-0.007746	0.011503	0.999907	0.007367	0.007661	-0.007455	0.999943	
14341								0.075224	-0.074238	9.809499	0.999904	-0.011448	-0.007761	0.011506	0.999907	0.007378	0.007676	-0.007467	0.999943	
14342								0.080646	-0.080095	9.797580	0.999904	-0.011461	-0.007758	0.011519	0.999906	0.007395	0.007673	-0.007484	0.999943	
14343								0.059117	-0.104243	9.800692	0.999905	-0.011430	-0.007762	0.011488	0.999907	0.007387	0.007677	-0.007475	0.999943	
14344								0.075689	-0.067468	9.789465	0.999904	-0.011459	-0.007751	0.011516	0.999906	0.007391	0.007665	-0.007480	0.999943	
14345								0.078329	-0.083332	9.817656	0.999905	-0.011438	-0.007740	0.011495	0.999907	0.007404	0.007655	-0.007492	0.999943	
14346								0.066436	-0.084308	9.795099	0.999905	-0.011404	-0.007725	0.011461	0.999907	0.007383	0.007640	-0.007471	0.999943	
14347								0.070336	-0.094864	9.803242	0.999905	-0.011385	-0.007707	0.011441	0.999907	0.007365	0.007622	-0.007452	0.999943	
14348								0.065523	-0.082856	9.795118	0.999906	-0.011391	-0.007689	0.011448	0.999907	0.007384	0.007604	-0.007471	0.999943	
14349								0.089299	-0.088383	9.773795	0.999906	-0.011360	-0.007697	0.011417	0.999908	0.007391	0.007612	-0.007478	0.999943	
14350								0.064663	-0.081630	9.795134	0.999906	-0.011348	-0.007642	0.011405	0.999908	0.007366	0.007558	-0.007453	0.999944	
14351								0.078373	-0.069065	9.777600	0.999906	-0.011378	-0.007675	0.011435	0.999908	0.007345	0.007591	-0.007432	0.999944	
14352								0.068256	-0.091529	9.803288	0.999906	-0.011377	-0.007629	0.011434	0.999907	0.007369	0.007544	-0.007456	0.999944	
14353								0.081861	-0.079322	9.785753	0.999906	-0.011410	-0.007633	0.011467	0.999907	0.007371	0.007549	-0.007458	0.999944	
14354								0.068766	-0.085394	9.783248	0.999906	-0.011424	-0.007626	0.011481	0.999907	0.007372	0.007541	-0.007459	0.999944	
14355								0.064112	-0.073443	9.775115	0.999906	-0.011407	-0.007630	0.011463	0.999907	0.007383	0.007545	-0.007470	0.999944	
14356								0.081086	-0.077442	9.785775	0.999906	-0.011418	-0.007652	0.011475	0.999907	0.007360	0.007568	-0.007448	0.999944	
14357								0.085095	-0.088273	9.793923	0.999906	-0.011435	-0.007621	0.011491	0.999907	0.007401	0.007535	-0.007488	0.999944	
14358								0.063285	-0.071655	9.775134	0.999905	-0.011431	-0.007646	0.011487	0.999907	0.007375	0.007561	-0.007462	0.999944	
14359								0.067348	-0.082256	9.783285	0.999906	-0.011391	-0.007621	0.011447	0.999907	0.007372	0.007536	-0.007459	0.999944	
14360								0.085447	-0.081348	9.773891	0.999906	-0.011408	-0.007632	0.011464	0.999907	0.007386	0.007547	-0.007473	0.999944	
14361								0.066720	-0.081031	9.783299	0.999906	-0.011409	-0.007625	0.011465	0.999907	0.007369	0.007540	-0.007456	0.999944	
14362								0.065039	-0.085329	9.803366	0.999906	-0.011423	-0.007618	0.011479	0.999907	0.007370	0.007533	-0.007457	0.999944	
14363								0.066126	-0.079736	9.783314	0.999906	-0.011409	-0.007636	0.011466	0.999907	0.007378	0.007551	-0.007465	0.999944	
14364								0.087328	-0.095190	9.802128	0.999906	-0.011404	-0.007618	0.011460	0.999907	0.007379	0.007533	-0.007465	0.999944	
14365								0.076765	-0.076748	9.805902	0.999906	-0.011380	-0.007585	0.011436	0.999907	0.007363	0.007501	-0.007449	0.999944	
14366								0.052088	-0.084438	9.780826	0.999906	-0.011415	-0.007589	0.011471	0.999907	0.007366	0.007504	-0.007452	0.999944	
14367								0.070259	-0.083480	9.771436	0.999906	-0.011414	-0.007586	0.011469	0.999907	0.007364	0.007501	-0.007450	0.999944	
14368								0.088432	-0.068172	9.808438	0.999906	-0.011422	-0.007568	0.011478	0.999907	0.007383	0.007483	-0.007469	0.999944	
14369								0.068308	-0.087346	9.791510	0.999906	-0.011415	-0.007597	0.011472	0.999907	0.007373	0.007512	-0.007459	0.999944	
14370								0.063755	-0.075141	9.783366	0.999906	-0.011417	-0.007586	0.011473	0.999907	0.007340	0.007501	-0.007427	0.999944	
14371								0.074852	-0.072637	9.805948	0.999906	-0.011417	-0.007582	0.011472	0.999907	0.007338	0.007498	-0.007425	0.999944	
14372								0.088725	-0.060355	9.788405	0.999906	-0.011418	-0.007597	0.011474	0.999907	0.007349	0.007512	-0.007436	0.999944	
14373								0.067281	-0.084622	9.791541	0.999906	-0.011431	-0.007594	0.011487	0.999907	0.007366	0.007509	-0.007453	0.999944	
14374								0.075456	-0.065988	9.785904	0.999906	-0.011435	-0.007606	0.011491	0.999907	0.007361	0.007521	-0.007448	0.999944	
14375								0.048316	-0.083720	9.800948	0.999906	-0.011434	-0.007603	0.011490	0.999907	0.007359	0.007518	-0.007446	0.999944	
14376								0.079198	-0.075923	9.794076	0.999906	-0.011384	-0.007591	0.011440	0.999908	0.007335	0.007507	-0.007421	0.999944	
14377								0.061759	-0.070639	9.783412	0.999907	-0.011364	-0.007598	0.011420	0.999908	0.007361	0.007514	-0.007447	0.999944	
14378								0.065917	-0.081562	9.791577	0.999906	-0.011381	-0.007610	0.011437	0.999907	0.007375	0.007525	-0.007461	0.999944	
14379								0.077068	-0.093703	9.767778	0.999907	-0.011351	-0.007614	0.011407	0.999908	0.007367	0.007530	-0.007453	0.999944	
14380								0.076847	-0.078570	9.814166	0.999906	-0.011365	-0.007607	0.011421	0.999908	0.007368	0.007522	-0.007454	0.999944	
14381								0.083374	-0.079256	9.782210	0.999907	-0.011342	-0.007574	0.011398	0.999908	0.007353	0.007490	-0.007439	0.999944	
14382								0.070308	-0.085243	9.779707	0.999906	-0.011385	-0.007607	0.011441	0.999908	0.007350	0.007523	-0.007436	0.999944	
14383								0.075742	-0.090955	9.767814	0.999907	-0.011345	-0.007581	0.011401	0.999908	0.007347	0.007497	-0.007433	0.999944	
14384								0.088020	-0.083690	9.770335	0.999907	-0.011353	-0.007564	0.011409	0.999908	0.007366	0.007480	-0.007452	0.999944	
14385								0.060849	-0.101369	9.785385	0.999907	-0.011365	-0.007582	0.011420	0.999908	0.007328	0.007498	-0.007414	0.999944	
14386								0.070417	-0.077564	9.759673	0.999907	-0.011347	-0.007586	0.011403	0.999908	0.007338	0.007502	-0.007424	0.999944	
14387								0.080298	-0.080217	9.802322	0.999907	-0.011366	-0.007593	0.011422	0.999908	0.007337	0.007509	-0.007423	0.999944	
14388								0.062875	-0.074856	9.791650	0.999907	-0.011367	-0.007586	0.011422	0.999908	0.007320	0.007502	-0.007406	0.999944	
14389								0.055412	-0.087254	9.777250	0.999906	-0.011395	-0.007575	0.011451	0.999908	0.007325	0.007491	-0.007411	0.999944	
14390								0.063469	-0.068520	9.771599	0.999907	-0.011331	-0.007571	0.011386	0.999908	0.007313	0.007488	-0.007398	0.999945	
14391								0.072080	-0.090572	9.787947	0.999907	-0.011357	-0.007612	0.011413	0.999908	0.007322	0.007528	-0.007408	0.999944	
14392								0.091648	-0.070261	9.804871	0.999907	-0.011326	-0.007572	0.011382	0.999908	0.007340	0.007488	-0.007425	0.999944	
14393								0.071346	-0.089429	9.787963	0.999907	-0.011332	-0.007579	0.011387	0.999908	0.007320	0.007496	-0.007406	0.999944	
14394								0.064247	-0.087389	9.819930	0.999907	-0.011322	-0.007616	0.011378	0.999908	0.007340	0.007533	-0.007426	0.999944	
14395								0.068137	-0.072116	9.759731	0.999907	-0.011333	-0.007617	0.011389	0.999908	0.007372	0.007533	-0.007459	0.999944	
14396								0.075242	-0.099364	9.796154	0.999907	-0.011331	-0.007618	0.011387	0.999908	0.007386	0.007533	-0.007472	0.999944	
14397								0.070577	-0.087482	9.787986	0.999907	-0.011279	-0.007614	0.011335	0.999908	0.007392	0.007530	-0.007478	0.999944	
14398								0.057662	-0.093588	9.785482	0.999907	-0.011321	-0.007647	0.011378	0.999908	0.007388	0.007563	-0.007475	0.999943	
14399								0.082915	-0.079515	9.790511	0.999907	-0.011312	-0.007615	0.011368	0.999908	0.007392	0.007531	-0.007478	0.999944	
14400								0.063906	-0.093824	9.753538	0.999907	-0.011290	-0.007604	0.011346	0.999908	0.007405	0.007520	-0.007490	0.999944	
14401								0.064780	-0.073691	9.779839	0.999908	-0.011266	-0.007571	0.011322	0.999909	0.007389	0.007487	-0.007474	0.999944	
14402								0.087236	-0.084036	9.778648	0.999908	-0.011268	-0.007586	0.011324	0.999908	0.007400	0.007502	-0.007485	0.999944	
14403								0.050065	-0.084133	9.797410	0.999908	-0.011267	-0.007582	0.011323	0.999909	0.007398	0.007498	-0.007484	0.999944	
14404								0.080941	-0.076264	9.790553	0.999908	-0.011269	-0.007571	0.011325	0.999909	0.007366	0.007488	-0.007451	0.999944	
14405								0.056434	-0.083875	9.765470	0.999908	-0.011274	-0.007578	0.011330	0.999909	0.007346	0.007495	-0.007431	0.999944	
14406								0.071994	-0.092723	9.796244	0.999907	-0.011307	-0.007583	0.011363	0.999908	0.007348	0.007499	-0.007433	0.999944	
14407								0.078770	-0.078978	9.810648	0.999907	-0.011307	-0.007579	0.011362	0.999908	0.007346	0.007495	-0.007431	0.999944	
14408								0.067018	-0.080143	9.788074	0.999908	-0.011255	-0.007575	0.011311	0.999909	0.007352	0.007492	-0.007437	0.999944	
14409								0.065430	-0.084560	9.808151	0.999908	-0.011272	-0.007587	0.011328	0.999909	0.007366	0.007503	-0.007451	0.999944	
14410								0.084897	-0.078632	9.778714	0.999908	-0.011268	-0.007565	0.011323	0.999909	0.007351	0.007482	-0.007436	0.999944	
14411								0.076032	-0.096162	9.784399	0.999908	-0.011274	-0.007551	0.011330	0.999909	0.007386	0.007467	-0.007471	0.999944	
14412								0.061255	-0.066694	9.779912	0.999908	-0.011257	-0.007556	0.011313	0.999909	0.007396	0.007472	-0.007481	0.999944	
14413								0.066602	-0.072320	9.768036	0.999909	-0.011224	-0.007537	0.011280	0.999909	0.007360	0.007453	-0.007444	0.999945	
14414								0.079525	-0.105682	9.792614	0.999908	-0.011213	-0.007578	0.011269	0.999909	0.007395	0.007494	-0.007480	0.999944	
14415								0.069163	-0.087552	9.796311	0.999909	-0.011232	-0.007538	0.011288	0.999909	0.007405	0.007454	-0.007489	0.999944	
14416								0.087168	-0.086539	9.786951	0.999908	-0.011252	-0.007542	0.011308	0.999909	0.007388	0.007458	-0.007473	0.999944	
14417								0.069625	-0.081322	9.776256	0.999909	-0.011240	-0.007513	0.011296	0.999909	0.007407	0.007429	-0.007491	0.999944	
14418								0.073617	-0.092088	9.784457	0.999908	-0.011244	-0.007524	0.011300	0.999909	0.007402	0.007440	-0.007487	0.999944	
14419								0.086093	-0.084758	9.786976	0.999909	-0.011222	-0.007513	0.011278	0.999909	0.007415	0.007430	-0.007499	0.999944	
14420								0.074351	-0.085818	9.764400	0.999909	-0.011229	-0.007517	0.011284	0.999909	0.007380	0.007433	-0.007464	0.999945	
14421								0.062654	-0.072207	9.788165	0.999909	-0.011213	-0.007517	0.011268	0.999909	0.007374	0.007433	-0.007458	0.999945	
14422								0.066576	-0.082981	9.796369	0.999909	-0.011216	-0.007484	0.011271	0.999909	0.007397	0.007401	-0.007480	0.999945	
14423								0.054729	-0.084183	9.773791	0.999909	-0.011236	-0.007488	0.011291	0.999909	0.007380	0.007404	-0.007464	0.999945	
14424								0.079960	-0.069979	9.778821	0.999909	-0.011235	-0.007484	0.011290	0.999909	0.007378	0.007400	-0.007462	0.999945	
14425								0.083972	-0.080723	9.787028	0.999909	-0.011213	-0.007474	0.011268	0.999909	0.007391	0.007390	-0.007475	0.999945	
14426								0.070802	-0.086973	9.784525	0.999909	-0.011206	-0.007460	0.011261	0.999909	0.007407	0.007376	-0.007491	0.999945	
14427								0.064690	-0.079939	9.796407	0.999909	-0.011207	-0.007452	0.011262	0.999909	0.007390	0.007369	-0.007473	0.999945	
14428								0.064365	-0.079197	9.796415	0.999910	-0.011191	-0.007452	0.011246	0.999909	0.007385	0.007369	-0.007468	0.999945	
14429								0.065389	-0.073620	9.776346	0.999910	-0.011205	-0.007445	0.011260	0.999909	0.007386	0.007362	-0.007470	0.999945	
14430								0.069242	-0.084310	9.784559	0.999910	-0.011161	-0.007405	0.011215	0.999910	0.007386	0.007322	-0.007468	0.999945	
14431								0.091768	-0.094535	9.783414	0.999910	-0.011190	-0.007438	0.011245	0.999910	0.007364	0.007355	-0.007447	0.999945	
14432								0.063013	-0.076458	9.796446	0.999909	-0.011219	-0.007427	0.011273	0.999909	0.007369	0.007344	-0.007452	0.999945	
14433								0.074044	-0.088630	9.772713	0.999910	-0.011198	-0.007413	0.011253	0.999910	0.007367	0.007330	-0.007450	0.999945	
14434								0.080824	-0.074637	9.787103	0.999910	-0.011195	-0.007434	0.011250	0.999910	0.007326	0.007351	-0.007409	0.999946	
14435								0.060836	-0.093697	9.770221	0.999910	-0.011195	-0.007431	0.011249	0.999910	0.007325	0.007348	-0.007407	0.999946	
14436								0.075944	-0.061904	9.778907	0.999910	-0.011192	-0.007432	0.011247	0.999910	0.007338	0.007349	-0.007421	0.999945	
14437								0.078787	-0.077680	9.807202	0.999910	-0.011178	-0.007454	0.011233	0.999910	0.007360	0.007371	-0.007443	0.999945	
14438								0.060261	-0.091878	9.770241	0.999910	-0.011176	-0.007471	0.011231	0.999910	0.007304	0.007389	-0.007387	0.999945	
14439								0.071483	-0.089271	9.792840	0.999910	-0.011172	-0.007476	0.011227	0.999910	0.007333	0.007393	-0.007416	0.999945	
14440								0.071234	-0.088920	9.792845	0.999910	-0.011169	-0.007480	0.011224	0.999910	0.007362	0.007397	-0.007445	0.999945	
14441								0.060879	-0.070635	9.796503	0.999909	-0.011189	-0.007484	0.011244	0.999910	0.007345	0.007401	-0.007428	0.999945	
14442								0.080546	-0.064590	9.767074	0.999910	-0.011148	-0.007505	0.011203	0.999910	0.007331	0.007423	-0.007414	0.999945	
14443								0.064928	-0.080510	9.804732	0.999910	-0.011131	-0.007509	0.011186	0.999910	0.007341	0.007427	-0.007424	0.999945	
14444								0.064712	-0.079997	9.804737	0.999910	-0.011147	-0.007521	0.011203	0.999910	0.007355	0.007438	-0.007439	0.999945	
14445								0.075794	-0.092330	9.781016	0.999910	-0.011136	-0.007492	0.011191	0.999910	0.007374	0.007410	-0.007457	0.999945	
14446								0.069618	-0.085466	9.792887	0.999910	-0.011148	-0.007489	0.011203	0.999910	0.007391	0.007406	-0.007474	0.999945	
14447								0.076555	-0.086313	9.760949	0.999909	-0.011177	-0.007522	0.011233	0.999910	0.007369	0.007439	-0.007453	0.999945	
14448								0.076308	-0.070970	9.807273	0.999910	-0.011156	-0.007511	0.011211	0.999910	0.007381	0.007428	-0.007465	0.999945	
14449								0.064587	-0.072179	9.784688	0.999909	-0.011176	-0.007515	0.011231	0.999910	0.007365	0.007432	-0.007449	0.999945	
14450								0.078644	-0.085718	9.835593	0.999910	-0.011157	-0.007496	0.011212	0.999910	0.007347	0.007414	-0.007430	0.999945	
14451								0.075155	-0.083485	9.760985	0.999910	-0.011146	-0.007464	0.011201	0.999910	0.007350	0.007381	-0.007433	0.999945	
14452								0.080330	-0.074600	9.795446	0.999910	-0.011160	-0.007457	0.011215	0.999910	0.007352	0.007374	-0.007435	0.999945	
14453								0.078684	-0.078864	9.815537	0.999910	-0.011180	-0.007464	0.011234	0.999910	0.007351	0.007382	-0.007434	0.999945	
14454								0.075355	-0.061998	9.787235	0.999910	-0.011144	-0.007453	0.011199	0.999910	0.007345	0.007371	-0.007428	0.999945	
14455								0.079517	-0.072604	9.795468	0.999910	-0.011153	-0.007479	0.011208	0.999910	0.007338	0.007397	-0.007421	0.999945	
14456								0.072396	-0.085184	9.781107	0.999910	-0.011170	-0.007490	0.011225	0.999910	0.007352	0.007408	-0.007435	0.999945	
14457								0.062010	-0.067049	9.784741	0.999910	-0.011146	-0.007484	0.011202	0.999910	0.007380	0.007401	-0.007463	0.999945	
14458								0.077632	-0.090581	9.769263	0.999909	-0.011171	-0.007502	0.011227	0.999910	0.007361	0.007419	-0.007444	0.999945	
14459								0.078791	-0.070305	9.795491	0.999909	-0.011159	-0.007521	0.011215	0.999910	0.007369	0.007438	-0.007452	0.999945	
14460								0.077448	-0.089177	9.769278	0.999909	-0.011154	-0.007546	0.011209	0.999910	0.007343	0.007463	-0.007427	0.999945	
14461								0.077285	-0.088395	9.769286	0.999909	-0.011138	-0.007546	0.011193	0.999910	0.007338	0.007463	-0.007422	0.999945	
14462								0.058458	-0.088030	9.778641	0.999909	-0.011153	-0.007535	0.011209	0.999910	0.007324	0.007452	-0.007408	0.999945	
14463								0.075012	-0.091970	9.789392	0.999910	-0.011151	-0.007488	0.011207	0.999910	0.007348	0.007405	-0.007431	0.999945	
14464								0.077308	-0.066837	9.795527	0.999909	-0.011151	-0.007527	0.011206	0.999910	0.007320	0.007445	-0.007404	0.999945	
14465								0.064453	-0.072924	9.793024	0.999909	-0.011163	-0.007524	0.011219	0.999910	0.007337	0.007442	-0.007421	0.999945	
14466								0.099740	-0.076521	9.794432	0.999909	-0.011162	-0.007521	0.011218	0.999910	0.007335	0.007438	-0.007419	0.999945	
14467								0.069547	-0.078036	9.781187	0.999910	-0.011149	-0.007517	0.011204	0.999910	0.007315	0.007435	-0.007398	0.999945	
14468								0.063425	-0.070874	9.793046	0.999910	-0.011128	-0.007503	0.011183	0.999911	0.007312	0.007421	-0.007396	0.999945	
14469								0.075879	-0.063504	9.795560	0.999910	-0.011130	-0.007517	0.011185	0.999911	0.007323	0.007435	-0.007407	0.999945	
14470								0.060436	-0.094102	9.786940	0.999910	-0.011074	-0.007542	0.011129	0.999911	0.007305	0.007461	-0.007389	0.999945	
14471								0.067430	-0.080304	9.801302	0.999910	-0.011080	-0.007576	0.011135	0.999911	0.007329	0.007494	-0.007412	0.999944	
14472								0.054579	-0.086489	9.798800	0.999910	-0.011100	-0.007579	0.011155	0.999911	0.007312	0.007497	-0.007396	0.999945	
14473								0.081077	-0.067329	9.783733	0.999910	-0.011079	-0.007565	0.011134	0.999911	0.007309	0.007483	-0.007393	0.999945	
14474								0.073708	-0.079873	9.769387	0.999910	-0.011078	-0.007561	0.011133	0.999911	0.007307	0.007480	-0.007391	0.999945	
14475								0.066344	-0.077569	9.801331	0.999910	-0.011069	-0.007572	0.011124	0.999912	0.007285	0.007491	-0.007368	0.999945	
14476								0.053441	-0.083569	9.798832	0.999910	-0.011057	-0.007587	0.011112	0.999912	0.007277	0.007505	-0.007360	0.999945	
14477								0.067306	-0.071149	9.781255	0.999910	-0.011042	-0.007582	0.011097	0.999912	0.007256	0.007502	-0.007340	0.999945	
14478								0.096882	-0.068360	9.794521	0.999910	-0.011052	-0.007587	0.011107	0.999912	0.007304	0.007506	-0.007388	0.999945	
14479								0.065511	-0.075078	9.801356	0.999910	-0.011060	-0.007612	0.011115	0.999912	0.007297	0.007531	-0.007381	0.999944	
14480								0.053989	-0.076257	9.778765	0.999910	-0.011080	-0.007616	0.011135	0.999911	0.007281	0.007535	-0.007365	0.999944	
14481								0.090571	-0.074795	9.760100	0.999910	-0.011040	-0.007591	0.011095	0.999912	0.007278	0.007510	-0.007361	0.999945	
14482								0.058899	-0.081307	9.766939	0.999910	-0.011054	-0.007584	0.011109	0.999912	0.007279	0.007503	-0.007363	0.999945	
14483								0.069876	-0.078829	9.789544	0.999910	-0.011046	-0.007570	0.011102	0.999912	0.007295	0.007488	-0.007378	0.999945	
14484								0.086714	-0.082816	9.800308	0.999910	-0.011049	-0.007585	0.011104	0.999912	0.007306	0.007503	-0.007389	0.999945	
14485								0.052139	-0.073098	9.778800	0.999911	-0.011031	-0.007562	0.011086	0.999912	0.007272	0.007481	-0.007356	0.999945	
14486								0.068920	-0.076766	9.789567	0.999910	-0.011035	-0.007573	0.011090	0.999912	0.007268	0.007492	-0.007351	0.999945	
14487								0.085901	-0.080817	9.800332	0.999910	-0.011049	-0.007592	0.011105	0.999912	0.007313	0.007511	-0.007396	0.999944	
14488								0.085684	-0.080211	9.800339	0.999910	-0.011021	-0.007588	0.011076	0.999912	0.007274	0.007507	-0.007357	0.999945	
14489								0.065677	-0.084498	9.829774	0.999910	-0.011051	-0.007620	0.011106	0.999912	0.007252	0.007540	-0.007336	0.999945	
14490								0.054214	-0.085609	9.807182	0.999910	-0.011056	-0.007628	0.011111	0.999912	0.007232	0.007547	-0.007316	0.999945	
14491								0.068301	-0.088078	9.743327	0.999910	-0.011044	-0.007646	0.011099	0.999912	0.007240	0.007565	-0.007324	0.999945	
14492								0.056567	-0.074621	9.767006	0.999910	-0.011043	-0.007643	0.011098	0.999912	0.007238	0.007562	-0.007322	0.999945	
14493								0.072053	-0.083112	9.797873	0.999910	-0.011035	-0.007649	0.011090	0.999913	0.007199	0.007569	-0.007283	0.999945	
14494								0.084585	-0.075508	9.800386	0.999910	-0.010988	-0.007661	0.011043	0.999913	0.007203	0.007581	-0.007287	0.999945	
14495								0.077399	-0.088039	9.786055	0.999910	-0.011008	-0.007664	0.011063	0.999913	0.007186	0.007584	-0.007270	0.999945	
14496								0.084185	-0.074133	9.800400	0.999910	-0.010995	-0.007682	0.011051	0.999913	0.007194	0.007602	-0.007278	0.999945	
14497								0.061081	-0.062722	9.801472	0.999910	-0.011008	-0.007679	0.011063	0.999913	0.007210	0.007599	-0.007294	0.999945	
14498								0.076606	-0.086210	9.786077	0.999910	-0.010989	-0.007661	0.011044	0.999913	0.007192	0.007581	-0.007276	0.999945	
14499								0.074824	-0.090331	9.806184	0.999910	-0.011003	-0.007654	0.011058	0.999913	0.007194	0.007574	-0.007278	0.999945	
14500								0.065779	-0.067134	9.789660	0.999910	-0.010992	-0.007668	0.011047	0.999913	0.007186	0.007589	-0.007270	0.999945	
14501								0.075739	-0.084172	9.786102	0.999910	-0.011025	-0.007672	0.011080	0.999913	0.007187	0.007592	-0.007272	0.999945	
14502								0.088140	-0.076495	9.788615	0.999910	-0.011014	-0.007660	0.011069	0.999913	0.007136	0.007581	-0.007220	0.999945	
14503								0.064886	-0.064709	9.789682	0.999910	-0.011013	-0.007656	0.011067	0.999913	0.007134	0.007577	-0.007218	0.999945	
14504								0.074655	-0.081858	9.786130	0.999910	-0.011020	-0.007639	0.011075	0.999913	0.007154	0.007559	-0.007238	0.999945	
14505								0.067406	-0.094469	9.771806	0.999910	-0.011045	-0.007657	0.011100	0.999913	0.007135	0.007577	-0.007219	0.999945	
14506								0.074146	-0.080493	9.786145	0.999910	-0.011044	-0.007653	0.011098	0.999913	0.007133	0.007573	-0.007217	0.999945	
14507								0.090982	-0.084352	9.796928	0.999910	-0.011027	-0.007657	0.011081	0.999913	0.007143	0.007578	-0.007227	0.999945	
14508								0.050731	-0.068424	9.787208	0.999910	-0.011045	-0.007665	0.011100	0.999913	0.007142	0.007585	-0.007226	0.999945	
14509								0.073334	-0.078681	9.786166	0.999910	-0.011059	-0.007657	0.011114	0.999913	0.007143	0.007578	-0.007227	0.999945	
14510								0.083161	-0.095833	9.782623	0.999909	-0.011071	-0.007654	0.011126	0.999912	0.007160	0.007574	-0.007244	0.999945	
14511								0.072846	-0.077520	9.786179	0.999909	-0.011050	-0.007687	0.011105	0.999913	0.007146	0.007607	-0.007230	0.999945	
14512								0.077062	-0.087918	9.794464	0.999909	-0.011052	-0.007675	0.011107	0.999913	0.007113	0.007596	-0.007197	0.999945	
14513								0.055054	-0.071424	9.775416	0.999910	-0.011027	-0.007646	0.011081	0.999913	0.007113	0.007567	-0.007197	0.999945	
14514								0.065989	-0.068712	9.798028	0.999910	-0.011047	-0.007650	0.011101	0.999913	0.007096	0.007571	-0.007180	0.999946	
14515								0.075838	-0.085755	9.794493	0.999910	-0.011025	-0.007639	0.011079	0.999913	0.007109	0.007560	-0.007193	0.999946	
14516								0.058517	-0.080695	9.783716	0.999910	-0.011018	-0.007668	0.011073	0.999914	0.007098	0.007589	-0.007183	0.999945	
14517								0.094045	-0.084053	9.785188	0.999910	-0.011022	-0.007679	0.011076	0.999913	0.007094	0.007600	-0.007178	0.999945	
14518								0.078247	-0.099838	9.822900	0.999910	-0.011016	-0.007661	0.011070	0.999914	0.007095	0.007583	-0.007179	0.999945	
14519								0.070463	-0.071851	9.786239	0.999910	-0.010985	-0.007665	0.011039	0.999914	0.007086	0.007587	-0.007170	0.999946	
14520								0.061959	-0.089062	9.792030	0.999910	-0.010997	-0.007682	0.011051	0.999914	0.007048	0.007604	-0.007133	0.999946	
14521								0.068950	-0.090007	9.760115	0.999910	-0.010977	-0.007690	0.011032	0.999914	0.007074	0.007612	-0.007158	0.999945	
14522								0.075713	-0.076198	9.774441	0.999910	-0.010966	-0.007704	0.011021	0.999914	0.007066	0.007626	-0.007150	0.999945	
14523								0.074012	-0.080351	9.794552	0.999910	-0.010975	-0.007682	0.011029	0.999914	0.007070	0.007604	-0.007154	0.999945	
14524								0.056546	-0.075198	9.783772	0.999910	-0.010965	-0.007693	0.011020	0.999914	0.007046	0.007615	-0.007131	0.999946	
14525								0.074703	-0.074094	9.774465	0.999910	-0.010974	-0.007671	0.011028	0.999914	0.007050	0.007593	-0.007134	0.999946	
14526								0.072839	-0.078100	9.794579	0.999911	-0.010942	-0.007653	0.010996	0.999915	0.007014	0.007575	-0.007098	0.999946	
14527								0.059796	-0.084181	9.792087	0.999911	-0.010960	-0.007665	0.011013	0.999915	0.007028	0.007587	-0.007111	0.999946	
14528								0.084944	-0.070028	9.797095	0.999911	-0.010938	-0.007654	0.010992	0.999915	0.007040	0.007577	-0.007124	0.999946	
14529								0.077578	-0.082602	9.782789	0.999911	-0.010970	-0.007635	0.011024	0.999915	0.007014	0.007558	-0.007098	0.999946	
14530								0.077232	-0.081837	9.782799	0.999910	-0.010988	-0.007643	0.011042	0.999914	0.007013	0.007566	-0.007097	0.999946	
14531								0.072664	-0.069995	9.774510	0.999910	-0.010975	-0.007662	0.011029	0.999915	0.007020	0.007584	-0.007104	0.999946	
14532								0.072519	-0.069470	9.774515	0.999910	-0.010992	-0.007673	0.011046	0.999914	0.007035	0.007595	-0.007119	0.999946	
14533								0.076618	-0.080043	9.782818	0.999911	-0.010958	-0.007658	0.011012	0.999915	0.007013	0.007580	-0.007097	0.999946	
14534								0.070870	-0.087783	9.748408	0.999910	-0.011001	-0.007690	0.011055	0.999914	0.007010	0.007612	-0.007094	0.999946	
14535								0.070409	-0.072107	9.794643	0.999910	-0.010982	-0.007672	0.011035	0.999915	0.006992	0.007594	-0.007076	0.999946	
14536								0.067672	-0.096022	9.788639	0.999910	-0.010986	-0.007705	0.011040	0.999914	0.007016	0.007627	-0.007100	0.999946	
14537								0.058696	-0.072947	9.772047	0.999910	-0.010987	-0.007698	0.011041	0.999915	0.006998	0.007620	-0.007083	0.999946	
14538								0.072449	-0.060604	9.754445	0.999910	-0.010986	-0.007694	0.011040	0.999915	0.006997	0.007616	-0.007081	0.999946	
14539								0.075238	-0.076036	9.782861	0.999910	-0.010988	-0.007709	0.011042	0.999914	0.007007	0.007632	-0.007092	0.999946	
14540								0.062257	-0.082353	9.780367	0.999910	-0.010967	-0.007699	0.011021	0.999915	0.007020	0.007621	-0.007104	0.999946	
14541								0.087286	-0.067951	9.785375	0.999910	-0.010969	-0.007688	0.011023	0.999915	0.006987	0.007611	-0.007071	0.999946	
14542								0.060190	-0.085809	9.800492	0.999910	-0.010949	-0.007700	0.011003	0.999915	0.007028	0.007623	-0.007112	0.999946	
14543								0.079829	-0.080204	9.771082	0.999910	-0.010947	-0.007697	0.011002	0.999915	0.007026	0.007619	-0.007110	0.999946	
14544								0.072361	-0.077805	9.803005	0.999910	-0.010967	-0.007700	0.011021	0.999915	0.007010	0.007622	-0.007094	0.999946	
14545								0.075535	-0.108096	9.785211	0.999910	-0.010959	-0.007733	0.011014	0.999915	0.007015	0.007655	-0.007099	0.999945	
14546								0.078005	-0.083000	9.791213	0.999910	-0.010947	-0.007751	0.011001	0.999915	0.007022	0.007674	-0.007107	0.999945	
14547								0.066516	-0.084374	9.768610	0.999910	-0.010952	-0.007758	0.011006	0.999915	0.007002	0.007681	-0.007087	0.999945	
14548								0.074543	-0.065567	9.762808	0.999910	-0.010951	-0.007754	0.011005	0.999915	0.007000	0.007677	-0.007085	0.999945	
14549								0.065903	-0.083185	9.768625	0.999910	-0.010991	-0.007748	0.011045	0.999914	0.007039	0.007670	-0.007124	0.999945	
14550								0.071087	-0.074112	9.803043	0.999910	-0.010976	-0.007744	0.011031	0.999915	0.007019	0.007666	-0.007104	0.999945	
14551								0.075067	-0.084585	9.811363	0.999910	-0.010936	-0.007719	0.010990	0.999915	0.007015	0.007641	-0.007100	0.999946	
14552								0.059084	-0.074900	9.780447	0.999910	-0.010941	-0.007752	0.010996	0.999915	0.007039	0.007674	-0.007124	0.999945	
14553								0.081839	-0.085139	9.779464	0.999910	-0.010941	-0.007744	0.010996	0.999915	0.007021	0.007667	-0.007106	0.999945	
14554								0.074398	-0.082689	9.811385	0.999910	-0.010930	-0.007759	0.010984	0.999915	0.007013	0.007681	-0.007098	0.999945	
14555								0.068606	-0.090491	9.776983	0.999910	-0.010946	-0.007748	0.011000	0.999915	0.006999	0.007670	-0.007084	0.999945	
14556								0.075239	-0.076444	9.791288	0.999910	-0.010934	-0.007762	0.010989	0.999915	0.006991	0.007685	-0.007076	0.999945	
14557								0.057903	-0.071465	9.780480	0.999910	-0.010932	-0.007763	0.010986	0.999915	0.007005	0.007686	-0.007089	0.999945	
14558								0.079093	-0.086424	9.799619	0.999910	-0.010947	-0.007752	0.011001	0.999915	0.006991	0.007675	-0.007076	0.999946	
14559								0.066168	-0.092537	9.797130	0.999910	-0.010955	-0.007777	0.011010	0.999915	0.006984	0.007700	-0.007069	0.999945	
14560								0.079867	-0.080381	9.779521	0.999910	-0.010953	-0.007730	0.011007	0.999915	0.007008	0.007653	-0.007093	0.999946	
14561								0.080862	-0.074985	9.759414	0.999910	-0.010948	-0.007755	0.011002	0.999915	0.006982	0.007677	-0.007067	0.999946	
14562								0.073466	-0.072526	9.791331	0.999910	-0.010961	-0.007747	0.011016	0.999915	0.006984	0.007670	-0.007069	0.999946	
14563								0.073211	-0.071861	9.791338	0.999910	-0.010950	-0.007762	0.011004	0.999915	0.006976	0.007685	-0.007061	0.999946	
14564								0.078744	-0.077495	9.779553	0.999910	-0.010952	-0.007750	0.011006	0.999915	0.006944	0.007673	-0.007028	0.999946	
14565								0.064216	-0.088309	9.797182	0.999910	-0.010946	-0.007732	0.011000	0.999915	0.006944	0.007655	-0.007029	0.999946	
14566								0.080972	-0.092050	9.808012	0.999910	-0.010979	-0.007735	0.011033	0.999915	0.006946	0.007658	-0.007031	0.999946	
14567								0.076303	-0.080169	9.799694	0.999910	-0.010948	-0.007739	0.011002	0.999915	0.006937	0.007662	-0.007022	0.999946	
14568								0.057505	-0.080055	9.808994	0.999910	-0.010974	-0.007736	0.011028	0.999915	0.006973	0.007658	-0.007058	0.999946	
14569								0.064312	-0.081228	9.777094	0.999910	-0.010955	-0.007717	0.011008	0.999915	0.006955	0.007640	-0.007040	0.999946	
14570								0.062578	-0.085284	9.797219	0.999911	-0.010922	-0.007725	0.010976	0.999916	0.006962	0.007648	-0.007046	0.999946	
14571								0.069604	-0.086371	9.765320	0.999911	-0.010911	-0.007739	0.010965	0.999916	0.006954	0.007663	-0.007038	0.999946	
14572								0.063520	-0.079164	9.777116	0.999910	-0.010927	-0.007728	0.010980	0.999916	0.006940	0.007652	-0.007024	0.999946	
14573								0.077219	-0.066924	9.759503	0.999911	-0.010905	-0.007717	0.010959	0.999916	0.006952	0.007641	-0.007036	0.999946	
14574								0.067256	-0.089141	9.785462	0.999911	-0.010908	-0.007729	0.010962	0.999916	0.006948	0.007652	-0.007032	0.999946	
14575								0.086764	-0.068225	9.802248	0.999911	-0.010887	-0.007761	0.010941	0.999916	0.006934	0.007685	-0.007018	0.999946	
14576								0.079696	-0.080697	9.787974	0.999911	-0.010889	-0.007749	0.010942	0.999916	0.006901	0.007674	-0.006985	0.999946	
14577								0.073447	-0.073434	9.799769	0.999911	-0.010883	-0.007731	0.010936	0.999916	0.006902	0.007655	-0.006985	0.999946	
14578								0.073051	-0.072793	9.799777	0.999911	-0.010882	-0.007728	0.010935	0.999916	0.006899	0.007652	-0.006983	0.999946	
14579								0.083033	-0.089805	9.796337	0.999911	-0.010886	-0.007739	0.010939	0.999916	0.006895	0.007663	-0.006979	0.999946	
14580								0.065805	-0.084870	9.785510	0.999910	-0.010907	-0.007764	0.010961	0.999916	0.006907	0.007688	-0.006991	0.999946	
14581								0.078319	-0.077419	9.788012	0.999910	-0.010906	-0.007761	0.010959	0.999916	0.006905	0.007685	-0.006989	0.999946	
14582								0.086234	-0.058674	9.782177	0.999911	-0.010871	-0.007750	0.010924	0.999917	0.006899	0.007674	-0.006983	0.999946	
14583								0.079068	-0.071240	9.767907	0.999911	-0.010861	-0.007760	0.010915	0.999917	0.006876	0.007685	-0.006960	0.999946	
14584								0.070471	-0.088659	9.773760	0.999911	-0.010869	-0.007742	0.010922	0.999917	0.006895	0.007667	-0.006979	0.999946	
14585								0.070128	-0.088024	9.773768	0.999911	-0.010874	-0.007749	0.010927	0.999917	0.006875	0.007673	-0.006959	0.999946	
14586								0.062689	-0.085537	9.805678	0.999911	-0.010892	-0.007756	0.010945	0.999916	0.006874	0.007680	-0.006958	0.999946	
14587								0.063886	-0.080154	9.785562	0.999910	-0.010896	-0.007767	0.010949	0.999916	0.006869	0.007691	-0.006954	0.999946	
14588								0.076218	-0.072571	9.788066	0.999911	-0.010906	-0.007741	0.010959	0.999916	0.006858	0.007666	-0.006942	0.999947	
14589								0.069962	-0.065485	9.799851	0.999910	-0.010918	-0.007738	0.010971	0.999916	0.006874	0.007662	-0.006959	0.999946	
14590								0.061329	-0.082935	9.805708	0.999910	-0.010934	-0.007727	0.010987	0.999916	0.006860	0.007651	-0.006945	0.999947	
14591								0.074158	-0.090441	9.762041	0.999910	-0.010942	-0.007753	0.010995	0.999916	0.006853	0.007677	-0.006937	0.999946	
14592								0.066750	-0.088002	9.793947	0.999910	-0.010941	-0.007749	0.010994	0.999916	0.006851	0.007673	-0.006935	0.999947	
14593								0.080642	-0.075752	9.776325	0.999910	-0.010964	-0.007771	0.011017	0.999916	0.006847	0.007695	-0.006932	0.999946	
14594								0.080440	-0.075093	9.776332	0.999910	-0.010963	-0.007767	0.011016	0.999916	0.006845	0.007692	-0.006930	0.999946	
14595								0.078784	-0.079139	9.796464	0.999910	-0.010966	-0.007778	0.011019	0.999916	0.006840	0.007702	-0.006925	0.999946	
14596								0.065948	-0.085398	9.793976	0.999910	-0.010954	-0.007797	0.011007	0.999916	0.006848	0.007721	-0.006933	0.999946	
14597								0.067116	-0.080100	9.773858	0.999910	-0.010968	-0.007790	0.011021	0.999916	0.006849	0.007714	-0.006934	0.999946	
14598								0.078239	-0.077328	9.796483	0.999909	-0.010960	-0.007823	0.011014	0.999916	0.006853	0.007747	-0.006938	0.999946	
14599								0.072298	-0.070155	9.808261	0.999909	-0.010980	-0.007826	0.011034	0.999916	0.006836	0.007751	-0.006922	0.999946	
14600								0.083631	-0.082652	9.784724	0.999909	-0.010985	-0.007817	0.011039	0.999915	0.006887	0.007741	-0.006972	0.999946	
14601								0.077567	-0.075670	9.796501	0.999909	-0.010995	-0.007838	0.011049	0.999915	0.006864	0.007762	-0.006950	0.999946	
14602								0.060374	-0.070604	9.785658	0.999908	-0.011018	-0.007860	0.011072	0.999915	0.006860	0.007784	-0.006947	0.999946	
14603								0.070466	-0.087675	9.782251	0.999909	-0.011001	-0.007864	0.011055	0.999915	0.006870	0.007788	-0.006956	0.999945	
14604								0.059921	-0.069410	9.785670	0.999909	-0.010999	-0.007860	0.011053	0.999915	0.006869	0.007784	-0.006955	0.999946	
14605								0.053731	-0.062434	9.797444	0.999909	-0.010991	-0.007850	0.011045	0.999915	0.006900	0.007774	-0.006986	0.999945	
14606								0.082080	-0.079229	9.784765	0.999909	-0.010985	-0.007832	0.011039	0.999915	0.006901	0.007756	-0.006987	0.999946	
14607								0.051955	-0.081072	9.771428	0.999909	-0.010975	-0.007843	0.011029	0.999916	0.006877	0.007767	-0.006963	0.999946	
14608								0.068744	-0.084718	9.782289	0.999909	-0.010983	-0.007825	0.011037	0.999915	0.006897	0.007749	-0.006982	0.999946	
14609								0.076749	-0.066075	9.776427	0.999909	-0.010991	-0.007850	0.011046	0.999915	0.006889	0.007774	-0.006975	0.999945	
14610								0.079677	-0.081338	9.804922	0.999909	-0.010993	-0.007865	0.011048	0.999915	0.006900	0.007789	-0.006986	0.999945	
14611								0.062276	-0.076541	9.794073	0.999909	-0.010986	-0.007852	0.011040	0.999915	0.006916	0.007775	-0.007002	0.999945	
14612								0.074583	-0.069086	9.796573	0.999909	-0.010985	-0.007848	0.011040	0.999915	0.006914	0.007771	-0.007000	0.999945	
14613								0.080094	-0.074831	9.784816	0.999909	-0.010971	-0.007844	0.011025	0.999915	0.006894	0.007768	-0.006980	0.999945	
14614								0.067193	-0.081115	9.782330	0.999909	-0.010971	-0.007863	0.011026	0.999915	0.006919	0.007787	-0.007005	0.999945	
14615								0.062547	-0.069423	9.773970	0.999909	-0.010969	-0.007859	0.011024	0.999915	0.006917	0.007783	-0.007003	0.999945	
14616								0.068028	-0.075333	9.762214	0.999909	-0.010947	-0.007849	0.011002	0.999915	0.006929	0.007772	-0.007015	0.999945	
14617								0.084803	-0.079202	9.773080	0.999909	-0.010958	-0.007850	0.011013	0.999915	0.006962	0.007773	-0.007047	0.999945	
14618								0.084498	-0.078716	9.773086	0.999909	-0.010957	-0.007846	0.011012	0.999915	0.006960	0.007769	-0.007045	0.999945	
14619								0.064312	-0.083231	9.802491	0.999909	-0.010974	-0.007857	0.011029	0.999915	0.006974	0.007780	-0.007060	0.999945	
14620								0.076795	-0.075712	9.804991	0.999909	-0.010928	-0.007864	0.010983	0.999915	0.006962	0.007787	-0.007048	0.999945	
14621								0.078077	-0.070394	9.784866	0.999909	-0.010951	-0.007890	0.011006	0.999915	0.006973	0.007813	-0.007060	0.999945	
14622								0.045209	-0.081803	9.811778	0.999909	-0.010945	-0.007872	0.011000	0.999915	0.006974	0.007795	-0.007060	0.999945	
14623								0.069179	-0.087251	9.790760	0.999909	-0.010944	-0.007869	0.010999	0.999915	0.006972	0.007792	-0.007058	0.999945	
14624								0.064492	-0.075322	9.782395	0.999909	-0.010934	-0.007879	0.010989	0.999915	0.006949	0.007803	-0.007035	0.999945	
14625								0.079938	-0.083514	9.813401	0.999909	-0.010933	-0.007875	0.010988	0.999916	0.006947	0.007799	-0.007033	0.999945	
14626								0.081185	-0.078235	9.793275	0.999909	-0.010940	-0.007905	0.010995	0.999915	0.006955	0.007828	-0.007041	0.999945	
14627								0.069773	-0.079843	9.770657	0.999909	-0.010924	-0.007905	0.010979	0.999916	0.006950	0.007828	-0.007036	0.999945	
14628								0.063728	-0.072725	9.782419	0.999909	-0.010911	-0.007923	0.010966	0.999916	0.006957	0.007847	-0.007043	0.999944	
14629								0.086504	-0.082810	9.781539	0.999909	-0.010931	-0.007926	0.010986	0.999916	0.006941	0.007850	-0.007027	0.999944	
14630								0.063356	-0.071060	9.782434	0.999909	-0.010930	-0.007944	0.010985	0.999916	0.006884	0.007868	-0.006971	0.999945	
14631								0.067464	-0.081299	9.790823	0.999909	-0.010890	-0.007919	0.010945	0.999916	0.006880	0.007843	-0.006966	0.999945	
14632								0.079890	-0.073857	9.793320	0.999909	-0.010896	-0.007953	0.010951	0.999916	0.006903	0.007877	-0.006990	0.999945	
14633								0.079655	-0.073267	9.793326	0.999909	-0.010892	-0.007931	0.010946	0.999916	0.006889	0.007855	-0.006975	0.999945	
14634								0.085071	-0.078974	9.781583	0.999909	-0.010892	-0.007923	0.010947	0.999916	0.006872	0.007847	-0.006958	0.999945	
14635								0.078894	-0.071821	9.793343	0.999909	-0.010890	-0.007923	0.010944	0.999916	0.006885	0.007848	-0.006971	0.999945	
14636								0.054796	-0.080466	9.768233	0.999909	-0.010911	-0.007949	0.010966	0.999916	0.006896	0.007873	-0.006983	0.999945	
14637								0.070290	-0.088628	9.799250	0.999909	-0.010898	-0.007941	0.010953	0.999916	0.006861	0.007865	-0.006947	0.999945	
14638								0.071574	-0.083296	9.779122	0.999908	-0.010938	-0.007982	0.010993	0.999916	0.006888	0.007906	-0.006975	0.999944	
14639								0.084032	-0.075871	9.781617	0.999909	-0.010897	-0.007956	0.010952	0.999916	0.006885	0.007881	-0.006971	0.999945	
14640								0.079130	-0.064119	9.773238	0.999909	-0.010876	-0.007947	0.010931	0.999916	0.006897	0.007871	-0.006984	0.999945	
14641								0.081738	-0.079218	9.801771	0.999909	-0.010893	-0.007931	0.010947	0.999916	0.006868	0.007856	-0.006954	0.999945	
14642								0.064316	-0.074265	9.790900	0.999909	-0.010910	-0.007943	0.010964	0.999916	0.006882	0.007867	-0.006968	0.999945	
14643								0.089476	-0.059852	9.795884	0.999909	-0.010913	-0.007953	0.010968	0.999916	0.006877	0.007877	-0.006964	0.999945	
14644								0.068336	-0.084154	9.799304	0.999909	-0.010898	-0.007953	0.010952	0.999916	0.006872	0.007878	-0.006958	0.999945	
14645								0.072611	-0.094615	9.807703	0.999909	-0.010906	-0.007979	0.010961	0.999916	0.006865	0.007903	-0.006951	0.999945	
14646								0.082146	-0.071205	9.781668	0.999909	-0.010910	-0.007990	0.010965	0.999916	0.006860	0.007915	-0.006947	0.999945	
14647								0.062409	-0.090697	9.764956	0.999909	-0.010882	-0.007986	0.010936	0.999917	0.006821	0.007911	-0.006908	0.999945	
14648								0.067481	-0.081304	9.799334	0.999909	-0.010856	-0.007983	0.010911	0.999917	0.006864	0.007908	-0.006951	0.999945	
14649								0.073054	-0.087308	9.787597	0.999909	-0.010876	-0.007987	0.010931	0.999917	0.006848	0.007912	-0.006935	0.999945	
14650								0.084012	-0.084308	9.810232	0.999909	-0.010875	-0.007983	0.010930	0.999917	0.006846	0.007908	-0.006932	0.999945	
14651								0.068066	-0.074769	9.779216	0.999909	-0.010879	-0.007994	0.010933	0.999917	0.006841	0.007919	-0.006928	0.999945	
14652								0.083484	-0.082990	9.810248	0.999909	-0.010892	-0.007987	0.010947	0.999917	0.006842	0.007912	-0.006929	0.999945	
14653								0.059276	-0.091469	9.785141	0.999909	-0.010898	-0.007994	0.010953	0.999917	0.006822	0.007919	-0.006909	0.999945	
14654								0.082013	-0.101339	9.784299	0.999909	-0.010854	-0.007997	0.010908	0.999917	0.006796	0.007922	-0.006882	0.999945	
14655								0.072909	-0.078163	9.767507	0.999909	-0.010844	-0.008007	0.010898	0.999918	0.006772	0.007933	-0.006859	0.999945	
14656								0.077927	-0.068559	9.801882	0.999909	-0.010855	-0.007981	0.010909	0.999918	0.006761	0.007907	-0.006848	0.999945	
14657								0.064935	-0.074923	9.799402	0.999909	-0.010855	-0.008000	0.010910	0.999917	0.006786	0.007926	-0.006873	0.999945	
14658								0.062486	-0.098983	9.793586	0.999909	-0.010878	-0.008021	0.010933	0.999917	0.006783	0.007947	-0.006870	0.999945	
14659								0.070397	-0.080205	9.787677	0.999909	-0.010889	-0.007996	0.010943	0.999917	0.006772	0.007921	-0.006858	0.999945	
14660								0.075957	-0.086048	9.775948	0.999909	-0.010862	-0.008018	0.010916	0.999917	0.006776	0.007944	-0.006862	0.999945	
14661								0.087039	-0.083091	9.798584	0.999909	-0.010831	-0.008022	0.010886	0.999918	0.006767	0.007948	-0.006853	0.999945	
14662								0.071134	-0.073552	9.767556	0.999909	-0.010836	-0.008033	0.010890	0.999918	0.006762	0.007959	-0.006849	0.999945	
14663								0.082192	-0.070664	9.790190	0.999909	-0.010853	-0.008044	0.010907	0.999918	0.006775	0.007970	-0.006863	0.999945	
14664								0.084994	-0.085784	9.818749	0.999909	-0.010873	-0.008048	0.010927	0.999917	0.006759	0.007973	-0.006846	0.999945	
14665								0.081664	-0.069441	9.790203	0.999909	-0.010849	-0.008042	0.010904	0.999918	0.006787	0.007967	-0.006874	0.999945	
14666								0.074513	-0.082305	9.775992	0.999909	-0.010850	-0.008034	0.010904	0.999918	0.006769	0.007960	-0.006856	0.999945	
14667								0.081030	-0.068024	9.790219	0.999909	-0.010840	-0.008045	0.010894	0.999918	0.006746	0.007971	-0.006833	0.999945	
14668								0.072561	-0.085429	9.796152	0.999909	-0.010851	-0.008041	0.010906	0.999918	0.006763	0.007967	-0.006850	0.999945	
14669								0.072415	-0.084809	9.796159	0.999909	-0.010830	-0.008074	0.010885	0.999918	0.006749	0.008000	-0.006836	0.999945	
14670								0.086359	-0.072673	9.778506	0.999909	-0.010792	-0.008071	0.010846	0.999918	0.006774	0.007997	-0.006861	0.999944	
14671								0.067325	-0.072626	9.787758	0.999909	-0.010810	-0.008030	0.010865	0.999918	0.006784	0.007956	-0.006870	0.999945	
14672								0.071444	-0.083069	9.796181	0.999909	-0.010840	-0.008062	0.010894	0.999918	0.006761	0.007988	-0.006849	0.999945	
14673								0.064491	-0.095794	9.781974	0.999909	-0.010854	-0.008055	0.010908	0.999918	0.006762	0.007981	-0.006850	0.999945	
14674								0.084998	-0.070165	9.778536	0.999910	-0.010959	-0.007684	0.011013	0.999915	0.006999	0.007607	-0.007083	0.999946	
14675								0.069179	-0.085749	9.816349	0.999911	-0.010943	-0.007687	0.010997	0.999915	0.007009	0.007610	-0.007093	0.999946	
14676								0.071817	-0.076012	9.776063	0.999910	-0.010961	-0.007698	0.011015	0.999915	0.007023	0.007620	-0.007107	0.999946	
14677								0.076013	-0.086569	9.784489	0.999910	-0.010959	-0.007694	0.011013	0.999915	0.007021	0.007616	-0.007105	0.999946	
14678								0.077295	-0.081342	9.764349	0.999910	-0.010952	-0.007726	0.011007	0.999915	0.007026	0.007649	-0.007111	0.999945	
14679								0.069913	-0.078705	9.796228	0.999910	-0.010941	-0.007736	0.010996	0.999915	0.007003	0.007659	-0.007087	0.999946	
14680								0.086838	-0.082212	9.807141	0.999910	-0.010959	-0.007747	0.011014	0.999915	0.007017	0.007669	-0.007102	0.999945	
14681								0.076764	-0.079297	9.764370	0.999910	-0.010961	-0.007739	0.011015	0.999915	0.007000	0.007661	-0.007085	0.999946	
14682								0.074958	-0.083243	9.784526	0.999910	-0.010945	-0.007728	0.010999	0.999915	0.007014	0.007651	-0.007098	0.999946	
14683								0.079161	-0.093832	9.792957	0.999910	-0.010929	-0.007746	0.010983	0.999915	0.007021	0.007669	-0.007106	0.999945	
14684								0.074582	-0.082162	9.784538	0.999910	-0.010929	-0.007761	0.010984	0.999915	0.007032	0.007683	-0.007117	0.999945	
14685								0.081009	-0.067870	9.798753	0.999911	-0.010909	-0.007734	0.010963	0.999916	0.006984	0.007657	-0.007068	0.999946	
14686								0.073878	-0.080667	9.784556	0.999911	-0.010888	-0.007745	0.010942	0.999915	0.007025	0.007668	-0.007109	0.999945	
14687								0.081934	-0.062160	9.778616	0.999910	-0.010920	-0.007762	0.010975	0.999915	0.007024	0.007685	-0.007109	0.999945	
14688								0.077967	-0.090710	9.792996	0.999910	-0.010917	-0.007758	0.010971	0.999915	0.007022	0.007680	-0.007107	0.999945	
14689								0.079035	-0.085403	9.772856	0.999910	-0.010929	-0.007746	0.010983	0.999915	0.007008	0.007668	-0.007093	0.999945	
14690								0.085439	-0.071121	9.787068	0.999910	-0.010916	-0.007741	0.010971	0.999915	0.006988	0.007664	-0.007072	0.999946	
14691								0.072549	-0.077298	9.784593	0.999910	-0.010903	-0.007755	0.010957	0.999916	0.006980	0.007678	-0.007064	0.999946	
14692								0.072313	-0.076708	9.784599	0.999910	-0.010917	-0.007751	0.010971	0.999915	0.006997	0.007674	-0.007082	0.999945	
14693								0.082241	-0.093638	9.781325	0.999911	-0.010898	-0.007728	0.010952	0.999916	0.006964	0.007651	-0.007048	0.999946	
14694								0.076150	-0.086264	9.793051	0.999910	-0.010913	-0.007767	0.010967	0.999916	0.006955	0.007691	-0.007039	0.999946	
14695								0.084162	-0.067606	9.787104	0.999910	-0.010922	-0.007749	0.010976	0.999915	0.006974	0.007672	-0.007059	0.999946	
14696								0.075608	-0.085094	9.793065	0.999911	-0.010895	-0.007752	0.010949	0.999916	0.006966	0.007676	-0.007050	0.999946	
14697								0.056903	-0.084825	9.802305	0.999910	-0.010914	-0.007773	0.010969	0.999916	0.006962	0.007697	-0.007047	0.999946	
14698								0.059531	-0.075032	9.762008	0.999910	-0.010943	-0.007762	0.010997	0.999915	0.006967	0.007685	-0.007052	0.999946	
14699								0.081688	-0.069632	9.807283	0.999910	-0.010934	-0.007776	0.010988	0.999915	0.006960	0.007700	-0.007044	0.999946	
14700								0.080605	-0.089046	9.781381	0.999910	-0.010930	-0.007776	0.010984	0.999915	0.006973	0.007699	-0.007058	0.999945	
14701								0.075894	-0.077361	9.772948	0.999910	-0.010946	-0.007783	0.011000	0.999915	0.006972	0.007706	-0.007057	0.999945	
14702								0.078577	-0.092450	9.801550	0.999911	-0.010890	-0.007764	0.010944	0.999916	0.006981	0.007688	-0.007065	0.999945	
14703								0.073728	-0.080918	9.793115	0.999910	-0.010916	-0.007761	0.010970	0.999915	0.007016	0.007684	-0.007101	0.999945	
14704								0.073441	-0.080414	9.793121	0.999911	-0.010887	-0.007764	0.010942	0.999916	0.007008	0.007687	-0.007092	0.999945	
14705								0.077516	-0.090643	9.801575	0.999910	-0.010920	-0.007741	0.010974	0.999916	0.006967	0.007664	-0.007052	0.999946	
14706								0.092617	-0.073688	9.763760	0.999910	-0.010922	-0.007737	0.010976	0.999915	0.006966	0.007660	-0.007050	0.999946	
14707								0.066362	-0.071586	9.804857	0.999911	-0.010915	-0.007722	0.010969	0.999915	0.006982	0.007645	-0.007066	0.999946	
14708								0.065205	-0.091044	9.778966	0.999910	-0.010923	-0.007733	0.010977	0.999915	0.006978	0.007656	-0.007063	0.999946	
14709								0.084377	-0.069933	9.795644	0.999910	-0.010958	-0.007736	0.011012	0.999915	0.006981	0.007658	-0.007065	0.999946	
14710								0.060374	-0.078548	9.770533	0.999910	-0.010955	-0.007760	0.011009	0.999915	0.006955	0.007683	-0.007040	0.999946	
14711								0.075822	-0.086554	9.801625	0.999910	-0.010933	-0.007749	0.010988	0.999915	0.006968	0.007672	-0.007053	0.999946	
14712								0.081397	-0.092437	9.789928	0.999910	-0.010953	-0.007752	0.011007	0.999915	0.006951	0.007675	-0.007036	0.999946	
14713								0.070763	-0.074238	9.793190	0.999910	-0.010964	-0.007752	0.011018	0.999915	0.006984	0.007675	-0.007069	0.999946	
14714								0.082311	-0.086742	9.769787	0.999910	-0.010972	-0.007758	0.011026	0.999915	0.006964	0.007681	-0.007049	0.999946	
14715								0.076047	-0.079491	9.781500	0.999910	-0.010982	-0.007736	0.011036	0.999915	0.006969	0.007659	-0.007054	0.999946	
14716								0.074224	-0.083448	9.801664	0.999909	-0.011017	-0.007739	0.011071	0.999914	0.006971	0.007662	-0.007056	0.999946	
14717								0.074021	-0.082786	9.801671	0.999909	-0.011007	-0.007753	0.011061	0.999915	0.006964	0.007676	-0.007049	0.999946	
14718								0.069111	-0.071040	9.793225	0.999910	-0.010992	-0.007706	0.011046	0.999915	0.006970	0.007628	-0.007055	0.999946	
14719								0.076274	-0.072439	9.761372	0.999909	-0.011028	-0.007774	0.011083	0.999914	0.006974	0.007697	-0.007059	0.999945	
14720								0.085231	-0.094050	9.778289	0.999910	-0.010976	-0.007771	0.011031	0.999915	0.006980	0.007693	-0.007065	0.999945	
14721								0.060492	-0.087251	9.799219	0.999909	-0.010997	-0.007773	0.011051	0.999915	0.006964	0.007696	-0.007049	0.999946	
14722								0.078656	-0.086124	9.790008	0.999909	-0.011003	-0.007750	0.011057	0.999915	0.006968	0.007673	-0.007053	0.999946	
14723								0.078294	-0.085503	9.790016	0.999909	-0.011022	-0.007757	0.011077	0.999914	0.006967	0.007679	-0.007052	0.999946	
14724								0.072132	-0.078385	9.801722	0.999909	-0.011019	-0.007757	0.011073	0.999914	0.006980	0.007680	-0.007065	0.999946	
14725								0.084446	-0.070845	9.804209	0.999909	-0.011031	-0.007749	0.011085	0.999914	0.006982	0.007672	-0.007067	0.999946	
14726								0.066178	-0.086250	9.767399	0.999909	-0.011043	-0.007746	0.011097	0.999914	0.006998	0.007668	-0.007084	0.999946	
14727								0.070354	-0.096749	9.775868	0.999909	-0.011012	-0.007749	0.011066	0.999914	0.006990	0.007671	-0.007075	0.999946	
14728								0.066351	-0.065004	9.793286	0.999909	-0.011020	-0.007730	0.011074	0.999914	0.007010	0.007652	-0.007095	0.999946	
14729								0.065190	-0.084439	9.767421	0.999909	-0.011026	-0.007737	0.011080	0.999914	0.006990	0.007659	-0.007075	0.999946	
14730								0.070829	-0.090338	9.755734	0.999909	-0.011037	-0.007733	0.011091	0.999914	0.007007	0.007655	-0.007092	0.999946	
14731								0.082507	-0.067264	9.804251	0.999909	-0.011035	-0.007728	0.011089	0.999914	0.007005	0.007650	-0.007090	0.999946	
14732								0.067266	-0.098225	9.796070	0.999909	-0.011048	-0.007720	0.011102	0.999914	0.007006	0.007642	-0.007091	0.999946	
14733								0.075098	-0.079554	9.790091	0.999910	-0.010997	-0.007717	0.011051	0.999914	0.007012	0.007639	-0.007097	0.999946	
14734								0.080686	-0.085356	9.778408	0.999909	-0.011033	-0.007711	0.011087	0.999914	0.006984	0.007633	-0.007069	0.999946	
14735								0.061875	-0.084904	9.787629	0.999909	-0.011023	-0.007721	0.011077	0.999914	0.006961	0.007644	-0.007046	0.999946	
14736								0.075705	-0.072627	9.769956	0.999909	-0.011022	-0.007717	0.011076	0.999914	0.006959	0.007640	-0.007044	0.999946	
14737								0.080558	-0.063000	9.804295	0.999910	-0.011030	-0.007695	0.011083	0.999914	0.006963	0.007617	-0.007048	0.999946	
14738								0.074894	-0.071362	9.769971	0.999910	-0.011015	-0.007694	0.011069	0.999915	0.006959	0.007617	-0.007043	0.999946	
14739								0.077583	-0.086323	9.798614	0.999910	-0.011028	-0.007687	0.011082	0.999914	0.006960	0.007609	-0.007045	0.999946	
14740								0.060210	-0.081579	9.787668	0.999910	-0.011031	-0.007697	0.011085	0.999914	0.006956	0.007620	-0.007040	0.999946	
14741								0.066002	-0.087587	9.775985	0.999910	-0.011018	-0.007719	0.011072	0.999914	0.006979	0.007641	-0.007064	0.999946	
14742								0.079991	-0.075272	9.758309	0.999909	-0.011015	-0.007735	0.011069	0.999915	0.006922	0.007658	-0.007007	0.999946	
14743								0.058279	-0.083912	9.807852	0.999910	-0.010993	-0.007724	0.011047	0.999915	0.006935	0.007647	-0.007020	0.999946	
14744								0.090731	-0.071280	9.780966	0.999909	-0.011023	-0.007756	0.011077	0.999915	0.006913	0.007679	-0.006999	0.999946	
14745								0.077967	-0.077598	9.778494	0.999909	-0.011021	-0.007756	0.011075	0.999915	0.006927	0.007679	-0.007012	0.999946	
14746								0.077500	-0.076968	9.778503	0.999910	-0.011013	-0.007718	0.011067	0.999915	0.006915	0.007642	-0.007000	0.999946	
14747								0.081553	-0.087236	9.786993	0.999910	-0.011005	-0.007728	0.011058	0.999915	0.006892	0.007652	-0.006977	0.999946	
14748								0.069380	-0.073377	9.810369	0.999910	-0.010999	-0.007710	0.011052	0.999915	0.006894	0.007633	-0.006978	0.999947	
14749								0.068310	-0.092889	9.784532	0.999910	-0.010986	-0.007728	0.011039	0.999915	0.006901	0.007651	-0.006986	0.999946	
14750								0.078526	-0.049826	9.784210	0.999910	-0.010996	-0.007732	0.011049	0.999915	0.006949	0.007655	-0.007034	0.999946	
14751								0.074478	-0.078294	9.798705	0.999910	-0.010948	-0.007712	0.011002	0.999916	0.006893	0.007636	-0.006977	0.999947	
14752								0.073484	-0.097614	9.772873	0.999910	-0.010954	-0.007745	0.011007	0.999915	0.006917	0.007669	-0.007001	0.999946	
14753								0.074113	-0.076972	9.798718	0.999910	-0.010952	-0.007740	0.011005	0.999916	0.006915	0.007664	-0.006999	0.999946	
14754								0.079837	-0.082868	9.787045	0.999910	-0.010975	-0.007761	0.011029	0.999915	0.006911	0.007685	-0.006996	0.999946	
14755								0.085562	-0.088674	9.775374	0.999910	-0.010961	-0.007757	0.011015	0.999916	0.006891	0.007681	-0.006975	0.999946	
14756								0.071366	-0.099493	9.793071	0.999909	-0.010988	-0.007796	0.011042	0.999915	0.006900	0.007720	-0.006985	0.999946	
14757								0.073318	-0.074305	9.798745	0.999909	-0.010992	-0.007759	0.011045	0.999915	0.006907	0.007682	-0.006992	0.999946	
14758								0.066206	-0.087242	9.784598	0.999909	-0.010995	-0.007769	0.011049	0.999915	0.006903	0.007692	-0.006988	0.999946	
14759								0.077119	-0.084079	9.807250	0.999909	-0.010994	-0.007765	0.011048	0.999915	0.006901	0.007688	-0.006986	0.999946	
14760								0.096774	-0.078547	9.777891	0.999910	-0.010972	-0.007754	0.011026	0.999915	0.006914	0.007677	-0.006999	0.999946	
14761								0.079351	-0.073832	9.766930	0.999910	-0.010992	-0.007756	0.011046	0.999915	0.006898	0.007680	-0.006983	0.999946	
14762								0.088094	-0.095116	9.783925	0.999910	-0.010968	-0.007770	0.011022	0.999916	0.006872	0.007694	-0.006957	0.999946	
14763								0.075901	-0.081058	9.807285	0.999910	-0.010951	-0.007747	0.011004	0.999916	0.006839	0.007671	-0.006924	0.999947	
14764								0.074729	-0.100383	9.781472	0.999910	-0.010950	-0.007743	0.011003	0.999916	0.006837	0.007667	-0.006922	0.999947	
14765								0.081020	-0.086075	9.795631	0.999910	-0.010930	-0.007724	0.010983	0.999916	0.006819	0.007648	-0.006903	0.999947	
14766								0.068072	-0.092337	9.793164	0.999910	-0.010935	-0.007734	0.010987	0.999916	0.006815	0.007659	-0.006900	0.999947	
14767								0.082047	-0.080363	9.775476	0.999910	-0.010918	-0.007761	0.010971	0.999916	0.006853	0.007685	-0.006938	0.999946	
14768								0.063305	-0.080129	9.784678	0.999910	-0.010940	-0.007755	0.010993	0.999916	0.006806	0.007680	-0.006891	0.999947	
14769								0.062851	-0.079354	9.784687	0.999910	-0.010928	-0.007726	0.010980	0.999916	0.006825	0.007651	-0.006910	0.999947	
14770								0.075095	-0.071867	9.787170	0.999910	-0.010945	-0.007737	0.010998	0.999916	0.006840	0.007661	-0.006924	0.999947	
14771								0.074892	-0.071298	9.787175	0.999910	-0.010964	-0.007743	0.011017	0.999916	0.006839	0.007667	-0.006924	0.999947	
14772								0.073966	-0.090769	9.761369	0.999910	-0.010952	-0.007757	0.011006	0.999916	0.006832	0.007682	-0.006916	0.999947	
14773								0.074522	-0.069848	9.787189	0.999910	-0.010958	-0.007763	0.011011	0.999916	0.006812	0.007688	-0.006897	0.999947	
14774								0.053447	-0.094132	9.790751	0.999910	-0.010973	-0.007751	0.011026	0.999916	0.006798	0.007676	-0.006883	0.999947	
14775								0.067308	-0.081897	9.773062	0.999909	-0.010982	-0.007776	0.011035	0.999916	0.006791	0.007700	-0.006876	0.999947	
14776								0.061188	-0.074869	9.784733	0.999910	-0.010956	-0.007773	0.011010	0.999916	0.006835	0.007697	-0.006920	0.999946	
14777								0.083778	-0.084921	9.784056	0.999910	-0.010968	-0.007742	0.011021	0.999916	0.006809	0.007667	-0.006893	0.999947	
14778								0.064712	-0.084587	9.793257	0.999910	-0.010948	-0.007727	0.011001	0.999916	0.006807	0.007652	-0.006891	0.999947	
14779								0.072492	-0.065933	9.787231	0.999910	-0.010945	-0.007727	0.010998	0.999916	0.006821	0.007652	-0.006905	0.999947	
14780								0.068545	-0.094457	9.801781	0.999910	-0.010929	-0.007726	0.010981	0.999916	0.006815	0.007651	-0.006900	0.999947	
14781								0.059344	-0.071545	9.784770	0.999910	-0.010970	-0.007735	0.011022	0.999916	0.006784	0.007660	-0.006869	0.999947	
14782								0.082234	-0.081490	9.784099	0.999910	-0.010970	-0.007754	0.011023	0.999916	0.006810	0.007678	-0.006895	0.999947	
14783								0.076213	-0.074375	9.795766	0.999909	-0.010979	-0.007779	0.011032	0.999916	0.006803	0.007703	-0.006888	0.999947	
14784								0.064951	-0.076325	9.773123	0.999909	-0.010996	-0.007789	0.011049	0.999916	0.006818	0.007714	-0.006903	0.999946	
14785								0.069266	-0.086769	9.781642	0.999909	-0.010985	-0.007803	0.011038	0.999916	0.006809	0.007728	-0.006895	0.999946	
14786								0.067583	-0.090631	9.801824	0.999909	-0.010982	-0.007804	0.011035	0.999916	0.006823	0.007728	-0.006908	0.999946	
14787								0.068705	-0.085524	9.781657	0.999909	-0.010996	-0.007791	0.011049	0.999916	0.006810	0.007716	-0.006895	0.999946	
14788								0.073558	-0.075754	9.815973	0.999909	-0.010993	-0.007792	0.011046	0.999916	0.006823	0.007716	-0.006909	0.999946	
14789								0.080829	-0.077333	9.784144	0.999909	-0.011000	-0.007820	0.011054	0.999916	0.006832	0.007744	-0.006918	0.999946	
14790								0.080593	-0.076741	9.784151	0.999909	-0.010994	-0.007801	0.011047	0.999916	0.006833	0.007726	-0.006918	0.999946	
14791								0.066115	-0.087591	9.801861	0.999909	-0.010992	-0.007797	0.011045	0.999916	0.006831	0.007721	-0.006916	0.999946	
14792								0.068721	-0.077789	9.761519	0.999909	-0.011014	-0.007791	0.011067	0.999916	0.006783	0.007715	-0.006869	0.999947	
14793								0.081073	-0.069967	9.764000	0.999909	-0.011031	-0.007801	0.011084	0.999915	0.006798	0.007726	-0.006884	0.999946	
14794								0.059424	-0.078902	9.813541	0.999911	-0.010913	-0.007710	0.010968	0.999915	0.007118	0.007632	-0.007202	0.999945	
14795								0.078516	-0.093589	9.758404	0.999911	-0.010910	-0.007701	0.010965	0.999915	0.007101	0.007623	-0.007185	0.999945	
14796								0.047791	-0.080214	9.790904	0.999911	-0.010912	-0.007715	0.010967	0.999915	0.007113	0.007637	-0.007197	0.999945	
14797								0.071266	-0.069959	9.816033	0.999911	-0.010933	-0.007703	0.010988	0.999914	0.007100	0.007625	-0.007184	0.999945	
14798								0.065788	-0.078390	9.781737	0.999910	-0.010936	-0.007713	0.010991	0.999914	0.007096	0.007635	-0.007180	0.999945	
14799								0.078142	-0.070691	9.784216	0.999910	-0.010936	-0.007709	0.010991	0.999914	0.007095	0.007630	-0.007179	0.999945	
14800								0.069517	-0.088200	9.790278	0.999911	-0.010907	-0.007669	0.010962	0.999915	0.007114	0.007590	-0.007197	0.999945	
14801								0.069159	-0.087616	9.790286	0.999911	-0.010914	-0.007693	0.010969	0.999915	0.007107	0.007615	-0.007191	0.999945	
14802								0.075606	-0.073335	9.804416	0.999911	-0.010931	-0.007685	0.010985	0.999914	0.007109	0.007607	-0.007193	0.999945	
14803								0.087849	-0.065585	9.806896	0.999911	-0.010934	-0.007677	0.010988	0.999914	0.007092	0.007599	-0.007176	0.999945	
14804								0.086743	-0.085255	9.781132	0.999911	-0.010947	-0.007659	0.011001	0.999914	0.007131	0.007580	-0.007214	0.999945	
14805								0.064701	-0.069782	9.761607	0.999911	-0.010940	-0.007640	0.010994	0.999914	0.007132	0.007561	-0.007215	0.999945	
14806								0.075506	-0.066538	9.784266	0.999911	-0.010941	-0.007650	0.010995	0.999914	0.007128	0.007571	-0.007211	0.999945	
14807								0.085768	-0.083567	9.781155	0.999911	-0.010954	-0.007660	0.011008	0.999914	0.007143	0.007581	-0.007226	0.999945	
14808								0.067016	-0.083341	9.790338	0.999911	-0.010939	-0.007670	0.010994	0.999914	0.007120	0.007591	-0.007203	0.999945	
14809								0.089884	-0.093052	9.789705	0.999911	-0.010932	-0.007680	0.010986	0.999914	0.007097	0.007601	-0.007181	0.999945	
14810								0.062178	-0.070753	9.781819	0.999911	-0.010934	-0.007694	0.010988	0.999914	0.007108	0.007615	-0.007192	0.999945	
14811								0.066338	-0.081126	9.790361	0.999911	-0.010931	-0.007671	0.010985	0.999915	0.007094	0.007593	-0.007177	0.999945	
14812								0.077922	-0.093665	9.767079	0.999911	-0.010948	-0.007681	0.011002	0.999914	0.007108	0.007603	-0.007192	0.999945	
14813								0.076260	-0.097331	9.787269	0.999911	-0.010922	-0.007690	0.010976	0.999915	0.007067	0.007612	-0.007151	0.999945	
14814								0.078053	-0.072089	9.792855	0.999911	-0.010925	-0.007666	0.010980	0.999914	0.007120	0.007587	-0.007204	0.999945	
14815								0.063684	-0.083156	9.810570	0.999911	-0.010928	-0.007690	0.010982	0.999914	0.007113	0.007612	-0.007197	0.999945	
14816								0.077541	-0.070846	9.792868	0.999911	-0.010925	-0.007677	0.010979	0.999915	0.007081	0.007599	-0.007165	0.999945	
14817								0.052003	-0.084062	9.787935	0.999911	-0.010946	-0.007679	0.011000	0.999915	0.007065	0.007601	-0.007149	0.999946	
14818								0.081422	-0.080340	9.801425	0.999911	-0.010943	-0.007679	0.010997	0.999914	0.007079	0.007601	-0.007163	0.999945	
14819								0.081095	-0.079684	9.801433	0.999911	-0.010935	-0.007670	0.010989	0.999915	0.007062	0.007593	-0.007146	0.999946	
14820								0.071231	-0.077047	9.758605	0.999910	-0.010952	-0.007691	0.011006	0.999915	0.007040	0.007613	-0.007124	0.999946	
14821								0.067975	-0.085083	9.798981	0.999911	-0.010948	-0.007668	0.011002	0.999915	0.007026	0.007591	-0.007110	0.999946	
14822								0.073600	-0.090946	9.787351	0.999911	-0.010948	-0.007678	0.011002	0.999915	0.007022	0.007601	-0.007106	0.999946	
14823								0.062884	-0.072667	9.790450	0.999911	-0.010945	-0.007674	0.010999	0.999915	0.007021	0.007597	-0.007104	0.999946	
14824								0.073784	-0.069429	9.813110	0.999911	-0.010935	-0.007692	0.010989	0.999915	0.007029	0.007615	-0.007113	0.999946	
14825								0.068454	-0.077975	9.778826	0.999910	-0.010958	-0.007694	0.011012	0.999915	0.007013	0.007617	-0.007097	0.999946	
14826								0.071187	-0.092667	9.807568	0.999911	-0.010943	-0.007693	0.010997	0.999915	0.007008	0.007616	-0.007092	0.999946	
14827								0.066298	-0.080917	9.799027	0.999911	-0.010943	-0.007671	0.010996	0.999915	0.006995	0.007594	-0.007079	0.999946	
14828								0.067417	-0.075787	9.778850	0.999910	-0.010962	-0.007677	0.011016	0.999915	0.006994	0.007600	-0.007078	0.999946	
14829								0.078166	-0.072434	9.801513	0.999911	-0.010954	-0.007654	0.011007	0.999915	0.006980	0.007577	-0.007064	0.999946	
14830								0.071198	-0.085357	9.787419	0.999911	-0.010956	-0.007664	0.011010	0.999915	0.006976	0.007587	-0.007060	0.999946	
14831								0.079196	-0.066818	9.781339	0.999911	-0.010942	-0.007691	0.010996	0.999915	0.007014	0.007613	-0.007098	0.999946	
14832								0.089376	-0.083738	9.778269	0.999911	-0.010921	-0.007663	0.010974	0.999916	0.006967	0.007586	-0.007050	0.999946	
14833								0.078509	-0.065394	9.781355	0.999911	-0.010915	-0.007667	0.010969	0.999915	0.006996	0.007590	-0.007079	0.999946	
14834								0.059577	-0.065454	9.790522	0.999911	-0.010920	-0.007648	0.010974	0.999915	0.007016	0.007571	-0.007099	0.999946	
14835								0.063107	-0.096160	9.773355	0.999911	-0.010924	-0.007658	0.010978	0.999915	0.007012	0.007581	-0.007096	0.999946	
14836								0.075973	-0.068125	9.801561	0.999911	-0.010935	-0.007631	0.010988	0.999915	0.007001	0.007554	-0.007085	0.999946	
14837								0.084494	-0.065214	9.749566	0.999911	-0.010932	-0.007627	0.010985	0.999915	0.007000	0.007550	-0.007083	0.999946	
14838								0.054515	-0.091988	9.805197	0.999911	-0.010946	-0.007623	0.010999	0.999915	0.007017	0.007545	-0.007100	0.999946	
14839								0.085397	-0.083868	9.798515	0.999911	-0.010916	-0.007626	0.010969	0.999915	0.007008	0.007549	-0.007091	0.999946	
14840								0.055461	-0.086230	9.785025	0.999911	-0.010938	-0.007628	0.010991	0.999915	0.006992	0.007551	-0.007076	0.999946	
14841								0.067778	-0.078424	9.787502	0.999911	-0.010921	-0.007627	0.010975	0.999915	0.006988	0.007550	-0.007071	0.999946	
14842								0.050403	-0.073799	9.776477	0.999911	-0.010905	-0.007626	0.010958	0.999916	0.006983	0.007549	-0.007066	0.999947	
14843								0.078374	-0.074457	9.810173	0.999911	-0.010904	-0.007640	0.010957	0.999916	0.006994	0.007563	-0.007077	0.999946	
14844								0.068507	-0.072063	9.767333	0.999911	-0.010903	-0.007631	0.010956	0.999916	0.006977	0.007555	-0.007060	0.999947	
14845								0.068053	-0.071289	9.767342	0.999912	-0.010913	-0.007605	0.010966	0.999916	0.006966	0.007528	-0.007049	0.999947	
14846								0.059523	-0.088749	9.773448	0.999911	-0.010925	-0.007601	0.010979	0.999915	0.006984	0.007524	-0.007067	0.999947	
14847								0.095182	-0.091570	9.775335	0.999911	-0.010915	-0.007662	0.010968	0.999916	0.006965	0.007585	-0.007048	0.999946	
14848								0.069120	-0.089078	9.816309	0.999911	-0.010914	-0.007657	0.010968	0.999916	0.006964	0.007581	-0.007047	0.999946	
14849								0.070253	-0.084195	9.796125	0.999911	-0.010903	-0.007647	0.010957	0.999916	0.006996	0.007570	-0.007079	0.999946	
14850								0.060953	-0.061715	9.778992	0.999911	-0.010922	-0.007653	0.010976	0.999915	0.006995	0.007576	-0.007078	0.999946	
14851								0.075681	-0.089555	9.784520	0.999911	-0.010895	-0.007652	0.010948	0.999916	0.006971	0.007575	-0.007054	0.999946	
14852								0.076955	-0.084283	9.764338	0.999912	-0.010871	-0.007665	0.010924	0.999916	0.006944	0.007589	-0.007028	0.999947	
14853								0.070708	-0.076916	9.775965	0.999911	-0.010883	-0.007657	0.010936	0.999916	0.006947	0.007580	-0.007030	0.999947	
14854								0.062345	-0.094334	9.782079	0.999911	-0.010887	-0.007667	0.010940	0.999916	0.006942	0.007590	-0.007026	0.999947	
14855								0.068863	-0.079922	9.796171	0.999911	-0.010867	-0.007699	0.010920	0.999916	0.006929	0.007623	-0.007012	0.999946	
14856								0.076133	-0.081543	9.764368	0.999911	-0.010875	-0.007680	0.010928	0.999916	0.006949	0.007604	-0.007032	0.999946	
14857								0.086791	-0.078237	9.787035	0.999911	-0.010887	-0.007668	0.010940	0.999916	0.006935	0.007592	-0.007019	0.999947	
14858								0.075336	-0.080316	9.764384	0.999911	-0.010897	-0.007663	0.010950	0.999916	0.006953	0.007587	-0.007036	0.999946	
14859								0.061039	-0.091255	9.782117	0.999911	-0.010886	-0.007682	0.010939	0.999916	0.006960	0.007605	-0.007044	0.999946	
14860								0.071912	-0.087942	9.804783	0.999911	-0.010883	-0.007677	0.010937	0.999916	0.006959	0.007601	-0.007042	0.999946	
14861								0.062764	-0.065345	9.787631	0.999911	-0.010876	-0.007710	0.010930	0.999916	0.006964	0.007633	-0.007048	0.999946	
14862								0.079150	-0.088995	9.772988	0.999911	-0.010860	-0.007713	0.010913	0.999916	0.006975	0.007637	-0.007058	0.999946	
14863								0.066866	-0.074986	9.796224	0.999912	-0.010832	-0.007708	0.010886	0.999917	0.006936	0.007632	-0.007019	0.999946	
14864								0.095550	-0.091380	9.784055	0.999912	-0.010838	-0.007689	0.010892	0.999916	0.006956	0.007613	-0.007039	0.999946	
14865								0.072212	-0.080290	9.784626	0.999911	-0.010848	-0.007714	0.010902	0.999916	0.006949	0.007638	-0.007032	0.999946	
14866								0.086196	-0.068221	9.766902	0.999911	-0.010849	-0.007728	0.010903	0.999916	0.006960	0.007652	-0.007044	0.999946	
14867								0.073410	-0.074644	9.764444	0.999911	-0.010870	-0.007730	0.010924	0.999916	0.006945	0.007654	-0.007028	0.999946	
14868								0.070140	-0.082725	9.804841	0.999911	-0.010866	-0.007729	0.010920	0.999916	0.006959	0.007653	-0.007043	0.999946	
14869								0.077263	-0.084501	9.773043	0.999911	-0.010875	-0.007711	0.010929	0.999916	0.006979	0.007635	-0.007063	0.999946	
14870								0.064862	-0.070625	9.796269	0.999911	-0.010860	-0.007706	0.010913	0.999916	0.006959	0.007630	-0.007042	0.999946	
14871								0.064572	-0.069843	9.796277	0.999912	-0.010830	-0.007709	0.010883	0.999917	0.006950	0.007634	-0.007034	0.999946	
14872								0.074752	-0.086783	9.793265	0.999911	-0.010858	-0.007698	0.010911	0.999916	0.006956	0.007621	-0.007039	0.999946	
