// Start Time: Unknown: 
// Update Rate: 60.0Hz 
// Filter Profile: human (46.1) 
// Firmware Version: 4.6.0
PacketCounter	SampleTimeFine	Year	Month	Day	Second	UTC_Nano	UTC_Year	UTC_Month	UTC_Day	UTC_Hour	UTC_Minute	UTC_Second	UTC_Valid	Acc_X	Acc_Y	Acc_Z	Mat[1][1]	Mat[2][1]	Mat[3][1]	Mat[1][2]	Mat[2][2]	Mat[3][2]	Mat[1][3]	Mat[2][3]	Mat[3][3] 
3598														-0.139587	0.079682	9.754821	-0.983435	0.180706	-0.014159	-0.180773	-0.983518	0.003585	-0.013278	0.006085	0.999893	
3599														-0.123567	0.036522	9.755712	-0.983441	0.180676	-0.014160	-0.180744	-0.983524	0.003608	-0.013275	0.006107	0.999893	
3600														-0.109349	0.051613	9.741011	-0.983435	0.180707	-0.014152	-0.180774	-0.983518	0.003585	-0.013271	0.006084	0.999893	
3601														-0.124668	0.051529	9.770115	-0.983432	0.180723	-0.014170	-0.180790	-0.983515	0.003542	-0.013297	0.006045	0.999893	
3602														-0.110937	0.066625	9.770057	-0.983434	0.180709	-0.014194	-0.180775	-0.983518	0.003528	-0.013323	0.006036	0.999893	
3603														-0.140094	0.051278	9.784567	-0.983434	0.180711	-0.014153	-0.180776	-0.983518	0.003497	-0.013288	0.005997	0.999894	
3604														-0.125415	0.065762	9.740578	-0.983434	0.180711	-0.014166	-0.180777	-0.983518	0.003501	-0.013299	0.006004	0.999894	
3605														-0.126687	0.081385	9.784272	-0.983437	0.180697	-0.014163	-0.180763	-0.983520	0.003509	-0.013296	0.006011	0.999894	
3606														-0.125984	0.052399	9.784742	-0.983434	0.180713	-0.014176	-0.180779	-0.983517	0.003513	-0.013307	0.006018	0.999893	
3607														-0.126019	0.052534	9.770092	-0.983434	0.180713	-0.014176	-0.180780	-0.983517	0.003536	-0.013304	0.006040	0.999893	
3608														-0.141395	0.067079	9.784310	-0.983442	0.180670	-0.014150	-0.180736	-0.983525	0.003502	-0.013285	0.006001	0.999894	
3609														-0.126288	0.052982	9.784735	-0.983437	0.180701	-0.014134	-0.180766	-0.983520	0.003512	-0.013266	0.006009	0.999894	
3610														-0.126834	0.067841	9.784494	-0.983439	0.180686	-0.014129	-0.180752	-0.983522	0.003505	-0.013263	0.006000	0.999894	
3611														-0.156614	0.081444	9.769232	-0.983439	0.180687	-0.014138	-0.180753	-0.983522	0.003494	-0.013274	0.005992	0.999894	
3612														-0.127167	0.067966	9.769839	-0.983439	0.180688	-0.014151	-0.180753	-0.983522	0.003498	-0.013285	0.005998	0.999894	
3613														-0.127663	0.068416	9.784479	-0.983438	0.180688	-0.014160	-0.180754	-0.983522	0.003488	-0.013297	0.005989	0.999894	
3614														-0.127673	0.064783	9.777213	-0.983437	0.180697	-0.014172	-0.180762	-0.983521	0.003485	-0.013308	0.005989	0.999894	
3615														-0.127683	0.061150	9.769946	-0.983435	0.180705	-0.014183	-0.180771	-0.983519	0.003482	-0.013320	0.005988	0.999893	
3616														-0.127427	0.039627	9.770299	-0.983438	0.180690	-0.014199	-0.180756	-0.983522	0.003501	-0.013332	0.006009	0.999893	
3617														-0.128745	0.068896	9.769812	-0.983434	0.180706	-0.014211	-0.180772	-0.983519	0.003427	-0.013358	0.005940	0.999893	
3618														-0.143480	0.053932	9.784504	-0.983434	0.180707	-0.014224	-0.180772	-0.983519	0.003432	-0.013369	0.005946	0.999893	
3619														-0.114155	0.054870	9.770236	-0.983434	0.180708	-0.014204	-0.180773	-0.983519	0.003427	-0.013351	0.005938	0.999893	
3620														-0.143905	0.054529	9.799144	-0.983437	0.180694	-0.014199	-0.180759	-0.983521	0.003420	-0.013347	0.005930	0.999893	
3621														-0.129545	0.069557	9.784446	-0.983437	0.180695	-0.014163	-0.180760	-0.983521	0.003419	-0.013312	0.005922	0.999894	
3622														-0.129547	0.069703	9.784445	-0.983440	0.180681	-0.014158	-0.180746	-0.983524	0.003411	-0.013308	0.005914	0.999894	
3623														-0.128946	0.054898	9.770041	-0.983440	0.180682	-0.014135	-0.180746	-0.983524	0.003392	-0.013290	0.005891	0.999894	
3624														-0.114383	0.055524	9.770230	-0.983445	0.180653	-0.014133	-0.180717	-0.983529	0.003400	-0.013286	0.005898	0.999894	
3625														-0.129655	0.070048	9.769792	-0.983442	0.180669	-0.014134	-0.180733	-0.983526	0.003422	-0.013283	0.005920	0.999894	
3626														-0.144522	0.069783	9.769596	-0.983437	0.180700	-0.014141	-0.180764	-0.983521	0.003396	-0.013294	0.005896	0.999894	
3627														-0.129555	0.055847	9.770027	-0.983437	0.180700	-0.014127	-0.180765	-0.983520	0.003422	-0.013276	0.005919	0.999894	
3628														-0.115675	0.071575	9.784616	-0.983442	0.180671	-0.014125	-0.180736	-0.983526	0.003430	-0.013272	0.005926	0.999894	
3629														-0.130269	0.071144	9.769776	-0.983445	0.180657	-0.014122	-0.180722	-0.983528	0.003437	-0.013268	0.005932	0.999894	
3630														-0.115224	0.057211	9.770210	-0.983445	0.180658	-0.014102	-0.180723	-0.983528	0.003433	-0.013249	0.005925	0.999895	
3631														-0.130424	0.071582	9.769770	-0.983448	0.180644	-0.014099	-0.180709	-0.983531	0.003441	-0.013245	0.005932	0.999895	
3632														-0.130093	0.057237	9.770012	-0.983442	0.180675	-0.014097	-0.180739	-0.983525	0.003448	-0.013242	0.005939	0.999895	
3633														-0.145294	0.071533	9.769572	-0.983442	0.180676	-0.014074	-0.180740	-0.983525	0.003430	-0.013223	0.005916	0.999895	
3634														-0.130803	0.072017	9.769762	-0.983436	0.180707	-0.014081	-0.180771	-0.983519	0.003404	-0.013233	0.005893	0.999895	
3635														-0.116537	0.072497	9.769950	-0.983444	0.180663	-0.014102	-0.180726	-0.983528	0.003376	-0.013260	0.005869	0.999895	
3636														-0.131467	0.057988	9.799288	-0.983441	0.180678	-0.014115	-0.180742	-0.983525	0.003381	-0.013272	0.005876	0.999895	
3637														-0.131142	0.057802	9.769995	-0.983444	0.180664	-0.014083	-0.180728	-0.983527	0.003394	-0.013238	0.005883	0.999895	
3638														-0.131220	0.058095	9.769992	-0.983444	0.180665	-0.014096	-0.180729	-0.983527	0.003399	-0.013250	0.005890	0.999895	
3639														-0.131234	0.043914	9.784879	-0.983443	0.180666	-0.014105	-0.180730	-0.983527	0.003388	-0.013261	0.005881	0.999895	
3640														-0.117728	0.073977	9.784574	-0.983441	0.180682	-0.014091	-0.180746	-0.983524	0.003413	-0.013242	0.005904	0.999895	
3641														-0.132103	0.058989	9.784624	-0.983438	0.180698	-0.014110	-0.180761	-0.983521	0.003370	-0.013268	0.005865	0.999895	
3642														-0.132272	0.058812	9.769974	-0.983443	0.180668	-0.014122	-0.180732	-0.983527	0.003375	-0.013280	0.005871	0.999895	
3643														-0.147758	0.073415	9.784171	-0.983440	0.180684	-0.014102	-0.180748	-0.983524	0.003370	-0.013261	0.005863	0.999895	
3644														-0.147623	0.059238	9.799061	-0.983428	0.180748	-0.014124	-0.180812	-0.983512	0.003382	-0.013280	0.005880	0.999895	
3645														-0.118369	0.060279	9.784803	-0.983431	0.180734	-0.014121	-0.180798	-0.983514	0.003390	-0.013276	0.005887	0.999895	
3646														-0.132878	0.059609	9.769960	-0.983433	0.180721	-0.014095	-0.180785	-0.983517	0.003356	-0.013256	0.005849	0.999895	
3647														-0.132727	0.059534	9.769963	-0.983431	0.180738	-0.014042	-0.180801	-0.983514	0.003343	-0.013207	0.005826	0.999896	
3648														-0.132730	0.059755	9.769962	-0.983433	0.180723	-0.014058	-0.180787	-0.983517	0.003363	-0.013219	0.005848	0.999896	
3649														-0.118038	0.060228	9.755509	-0.983433	0.180726	-0.014035	-0.180789	-0.983516	0.003343	-0.013199	0.005825	0.999896	
3650														-0.117249	0.031193	9.770655	-0.983434	0.180725	-0.014012	-0.180788	-0.983516	0.003324	-0.013180	0.005802	0.999896	
3651														-0.132459	0.045476	9.770207	-0.983434	0.180725	-0.014010	-0.180788	-0.983516	0.003331	-0.013177	0.005809	0.999896	
3652														-0.134221	0.075702	9.813637	-0.983437	0.180710	-0.014005	-0.180772	-0.983519	0.003324	-0.013174	0.005801	0.999896	
3653														-0.118825	0.061221	9.784791	-0.983437	0.180710	-0.014000	-0.180773	-0.983519	0.003316	-0.013170	0.005792	0.999896	
3654														-0.103927	0.061379	9.755696	-0.983437	0.180711	-0.013995	-0.180774	-0.983519	0.003309	-0.013167	0.005784	0.999897	
3655														-0.134155	0.075298	9.755042	-0.983438	0.180697	-0.014056	-0.180760	-0.983522	0.003320	-0.013224	0.005805	0.999896	
3656														-0.120365	0.062281	9.814064	-0.983441	0.180683	-0.014059	-0.180745	-0.983524	0.003279	-0.013235	0.005766	0.999896	
3657														-0.133618	0.045983	9.740891	-0.983435	0.180714	-0.014043	-0.180776	-0.983519	0.003289	-0.013217	0.005774	0.999896	
3658														-0.119546	0.047272	9.770376	-0.983441	0.180684	-0.014056	-0.180746	-0.983524	0.003294	-0.013229	0.005780	0.999896	
3659														-0.135906	0.076748	9.798956	-0.983438	0.180700	-0.014065	-0.180763	-0.983521	0.003283	-0.013240	0.005772	0.999896	
3660														-0.135214	0.061836	9.769915	-0.983438	0.180701	-0.014063	-0.180763	-0.983521	0.003291	-0.013237	0.005779	0.999896	
3661														-0.120018	0.047826	9.755719	-0.983434	0.180718	-0.014064	-0.180781	-0.983518	0.003313	-0.013233	0.005801	0.999896	
3662														-0.120724	0.049012	9.799650	-0.983434	0.180719	-0.014050	-0.180782	-0.983518	0.003338	-0.013215	0.005823	0.999896	
3663														-0.136005	0.063687	9.813840	-0.983435	0.180720	-0.014015	-0.180783	-0.983517	0.003337	-0.013181	0.005816	0.999896	
3664														-0.134966	0.048273	9.755510	-0.983434	0.180720	-0.014073	-0.180783	-0.983517	0.003333	-0.013238	0.005822	0.999895	
3665														-0.120765	0.034929	9.785248	-0.983434	0.180720	-0.014086	-0.180783	-0.983517	0.003338	-0.013250	0.005829	0.999895	
3666														-0.121722	0.064247	9.770087	-0.983439	0.180691	-0.014069	-0.180754	-0.983523	0.003349	-0.013232	0.005836	0.999895	
3667														-0.136439	0.064029	9.769883	-0.983436	0.180707	-0.014066	-0.180770	-0.983520	0.003356	-0.013228	0.005844	0.999895	
3668														-0.136502	0.050110	9.799427	-0.983436	0.180707	-0.014062	-0.180770	-0.983520	0.003349	-0.013225	0.005836	0.999896	
3669														-0.135738	0.049329	9.740845	-0.983436	0.180708	-0.014044	-0.180771	-0.983519	0.003360	-0.013206	0.005843	0.999896	
3670														-0.122392	0.065374	9.784721	-0.983439	0.180694	-0.014051	-0.180757	-0.983522	0.003334	-0.013217	0.005819	0.999896	
3671														-0.122753	0.065768	9.799363	-0.983442	0.180680	-0.014034	-0.180743	-0.983525	0.003345	-0.013199	0.005826	0.999896	
3672														-0.136396	0.049933	9.755482	-0.983439	0.180697	-0.014038	-0.180759	-0.983522	0.003305	-0.013209	0.005787	0.999896	
3673														-0.122707	0.065480	9.770067	-0.983436	0.180713	-0.014038	-0.180776	-0.983519	0.003327	-0.013206	0.005809	0.999896	
3674														-0.137710	0.065508	9.784505	-0.983438	0.180699	-0.014033	-0.180762	-0.983521	0.003319	-0.013202	0.005801	0.999896	
3675														-0.123737	0.080805	9.784446	-0.983441	0.180685	-0.014027	-0.180747	-0.983524	0.003312	-0.013198	0.005793	0.999896	
3676														-0.122648	0.051497	9.770316	-0.983444	0.180671	-0.014025	-0.180733	-0.983527	0.003320	-0.013194	0.005800	0.999896	
3677														-0.122514	0.051539	9.755669	-0.983441	0.180687	-0.014008	-0.180750	-0.983523	0.003331	-0.013175	0.005808	0.999896	
3678														-0.138243	0.066305	9.784492	-0.983446	0.180658	-0.014014	-0.180720	-0.983529	0.003306	-0.013186	0.005784	0.999896	
3679														-0.123525	0.052509	9.799597	-0.983443	0.180674	-0.014009	-0.180736	-0.983526	0.003299	-0.013182	0.005776	0.999896	
3680														-0.108398	0.052341	9.755865	-0.983443	0.180675	-0.014001	-0.180737	-0.983526	0.003277	-0.013178	0.005753	0.999897	
3681														-0.123400	0.052291	9.770302	-0.983446	0.180661	-0.014002	-0.180723	-0.983528	0.003299	-0.013175	0.005775	0.999897	
3682														-0.139729	0.081766	9.798862	-0.983445	0.180663	-0.014008	-0.180725	-0.983528	0.003274	-0.013186	0.005751	0.999897	
3683														-0.138412	0.052053	9.770092	-0.983448	0.180648	-0.013988	-0.180710	-0.983531	0.003270	-0.013167	0.005744	0.999897	
3684														-0.124369	0.067284	9.770034	-0.983448	0.180649	-0.013980	-0.180711	-0.983531	0.003248	-0.013163	0.005720	0.999897	
3685														-0.124444	0.067355	9.770032	-0.983451	0.180635	-0.013960	-0.180696	-0.983534	0.003244	-0.013144	0.005713	0.999897	
3686														-0.154011	0.066776	9.784265	-0.983451	0.180636	-0.013958	-0.180697	-0.983533	0.003251	-0.013141	0.005720	0.999897	
3687														-0.124459	0.067464	9.755382	-0.983451	0.180637	-0.013950	-0.180698	-0.983533	0.003229	-0.013137	0.005696	0.999897	
3688														-0.139013	0.052771	9.770079	-0.983453	0.180623	-0.013965	-0.180684	-0.983536	0.003249	-0.013148	0.005719	0.999897	
3689														-0.124837	0.067898	9.755374	-0.983453	0.180624	-0.013942	-0.180685	-0.983536	0.003230	-0.013129	0.005695	0.999898	
3690														-0.139764	0.067694	9.769812	-0.983456	0.180610	-0.013937	-0.180671	-0.983538	0.003223	-0.013125	0.005688	0.999898	
3691														-0.124899	0.053653	9.770276	-0.983458	0.180596	-0.013958	-0.180657	-0.983541	0.003194	-0.013152	0.005663	0.999897	
3692														-0.125798	0.068354	9.770008	-0.983461	0.180582	-0.013969	-0.180642	-0.983544	0.003184	-0.013164	0.005655	0.999897	
3693														-0.125477	0.039807	9.799818	-0.983461	0.180582	-0.013982	-0.180643	-0.983544	0.003188	-0.013176	0.005661	0.999897	
3694														-0.126326	0.068786	9.769998	-0.983463	0.180568	-0.013977	-0.180628	-0.983546	0.003182	-0.013172	0.005654	0.999897	
3695														-0.125276	0.039399	9.755877	-0.983463	0.180569	-0.013987	-0.180629	-0.983546	0.003171	-0.013184	0.005645	0.999897	
3696														-0.126485	0.068816	9.755347	-0.983460	0.180585	-0.013967	-0.180645	-0.983543	0.003167	-0.013165	0.005637	0.999897	
3697														-0.111737	0.041399	9.814659	-0.983457	0.180601	-0.013967	-0.180661	-0.983540	0.003189	-0.013162	0.005660	0.999897	
3698														-0.126312	0.041051	9.799802	-0.983460	0.180586	-0.013968	-0.180647	-0.983543	0.003212	-0.013158	0.005682	0.999897	
3699														-0.127316	0.070098	9.769976	-0.983459	0.180587	-0.014008	-0.180648	-0.983543	0.003196	-0.013200	0.005673	0.999897	
3700														-0.127472	0.069980	9.755325	-0.983454	0.180618	-0.014003	-0.180678	-0.983537	0.003189	-0.013197	0.005666	0.999897	
3701														-0.127309	0.055746	9.770233	-0.983459	0.180589	-0.013998	-0.180649	-0.983542	0.003182	-0.013193	0.005658	0.999897	
3702														-0.127775	0.070341	9.755319	-0.983459	0.180589	-0.013996	-0.180650	-0.983542	0.003189	-0.013190	0.005665	0.999897	
3703														-0.112585	0.042344	9.785349	-0.983465	0.180560	-0.013976	-0.180621	-0.983548	0.003185	-0.013171	0.005657	0.999897	
3704														-0.128519	0.071295	9.784601	-0.983459	0.180591	-0.014004	-0.180652	-0.983542	0.003187	-0.013198	0.005664	0.999897	
3705														-0.128529	0.070990	9.755304	-0.983455	0.180607	-0.014029	-0.180667	-0.983539	0.003173	-0.013225	0.005655	0.999897	
3706														-0.128734	0.057014	9.784856	-0.983458	0.180593	-0.014024	-0.180653	-0.983542	0.003166	-0.013221	0.005647	0.999897	
3707														-0.113784	0.042987	9.785332	-0.983458	0.180594	-0.014030	-0.180654	-0.983542	0.003140	-0.013232	0.005623	0.999897	
3708														-0.114396	0.057355	9.770416	-0.983460	0.180580	-0.014036	-0.180640	-0.983544	0.003115	-0.013243	0.005599	0.999897	
3709														-0.130314	0.072036	9.799221	-0.983460	0.180581	-0.014046	-0.180641	-0.983544	0.003105	-0.013254	0.005591	0.999897	
3710														-0.129238	0.042571	9.785109	-0.983463	0.180567	-0.014038	-0.180626	-0.983547	0.003083	-0.013250	0.005567	0.999897	
3711														-0.130172	0.071801	9.769926	-0.983468	0.180538	-0.014024	-0.180598	-0.983552	0.003108	-0.013232	0.005590	0.999897	
3712														-0.129934	0.057794	9.784836	-0.983468	0.180539	-0.014022	-0.180599	-0.983552	0.003116	-0.013228	0.005597	0.999897	
3713														-0.130405	0.072388	9.769918	-0.983465	0.180555	-0.014016	-0.180615	-0.983549	0.003108	-0.013225	0.005588	0.999897	
3714														-0.144181	0.042638	9.770240	-0.983465	0.180556	-0.014023	-0.180615	-0.983549	0.003083	-0.013236	0.005565	0.999897	
3715														-0.130462	0.058300	9.784826	-0.983465	0.180557	-0.014009	-0.180616	-0.983549	0.003109	-0.013218	0.005588	0.999897	
3716														-0.130863	0.073043	9.769907	-0.983465	0.180557	-0.014007	-0.180617	-0.983549	0.003117	-0.013214	0.005595	0.999897	
3717														-0.145107	0.058077	9.769960	-0.983467	0.180543	-0.014002	-0.180603	-0.983551	0.003110	-0.013211	0.005587	0.999897	
3718														-0.116282	0.059504	9.785030	-0.983470	0.180529	-0.014009	-0.180589	-0.983554	0.003084	-0.013222	0.005563	0.999897	
3719														-0.116828	0.074020	9.770111	-0.983470	0.180530	-0.014006	-0.180590	-0.983554	0.003092	-0.013218	0.005571	0.999897	
3720														-0.145782	0.058500	9.769948	-0.983467	0.180546	-0.014016	-0.180606	-0.983551	0.003082	-0.013229	0.005562	0.999897	
3721														-0.115961	0.044846	9.756002	-0.983469	0.180532	-0.014011	-0.180591	-0.983553	0.003074	-0.013226	0.005554	0.999897	
3722														-0.131594	0.059261	9.770156	-0.983469	0.180533	-0.014018	-0.180592	-0.983553	0.003049	-0.013237	0.005530	0.999897	
3723														-0.116558	0.045248	9.770641	-0.983464	0.180564	-0.013998	-0.180623	-0.983548	0.003045	-0.013218	0.005523	0.999897	
3724														-0.132140	0.073700	9.755236	-0.983463	0.180566	-0.013987	-0.180624	-0.983548	0.003007	-0.013213	0.005484	0.999898	
3725														-0.131890	0.059324	9.770151	-0.983464	0.180567	-0.013967	-0.180625	-0.983548	0.003003	-0.013195	0.005476	0.999898	
3726														-0.117006	0.045652	9.785282	-0.983461	0.180583	-0.013962	-0.180641	-0.983545	0.002996	-0.013191	0.005468	0.999898	
3727														-0.117633	0.060433	9.785008	-0.983466	0.180554	-0.013941	-0.180612	-0.983550	0.002992	-0.013171	0.005460	0.999898	
3728														-0.132270	0.060024	9.784791	-0.983464	0.180570	-0.013921	-0.180628	-0.983547	0.002987	-0.013153	0.005452	0.999899	
3729														-0.117483	0.060461	9.770361	-0.983472	0.180526	-0.013916	-0.180584	-0.983555	0.002980	-0.013149	0.005444	0.999899	
3730														-0.132415	0.059894	9.770141	-0.983474	0.180512	-0.013935	-0.180569	-0.983558	0.002937	-0.013175	0.005405	0.999899	
3731														-0.132866	0.060226	9.784782	-0.983471	0.180528	-0.013918	-0.180585	-0.983555	0.002947	-0.013157	0.005412	0.999899	
3732														-0.132490	0.059991	9.755490	-0.983471	0.180529	-0.013916	-0.180586	-0.983555	0.002955	-0.013154	0.005419	0.999899	
3733														-0.132642	0.060208	9.755487	-0.983477	0.180500	-0.013911	-0.180557	-0.983560	0.002947	-0.013150	0.005410	0.999899	
3734														-0.118840	0.061709	9.799634	-0.983476	0.180501	-0.013906	-0.180558	-0.983560	0.002940	-0.013146	0.005402	0.999899	
3735														-0.133320	0.060757	9.770123	-0.983476	0.180502	-0.013930	-0.180559	-0.983560	0.002926	-0.013173	0.005393	0.999899	
3736														-0.137318	0.060855	9.777387	-0.983476	0.180504	-0.013932	-0.180560	-0.983560	0.002917	-0.013177	0.005384	0.999899	
3737														-0.141316	0.060953	9.784650	-0.983475	0.180505	-0.013935	-0.180561	-0.983559	0.002908	-0.013181	0.005376	0.999899	
3738														-0.134097	0.075361	9.740547	-0.983470	0.180536	-0.013917	-0.180592	-0.983554	0.002918	-0.013162	0.005384	0.999899	
3739														-0.118950	0.047257	9.770603	-0.983475	0.180507	-0.013921	-0.180563	-0.983559	0.002879	-0.013172	0.005345	0.999899	
3740														-0.134673	0.061586	9.784748	-0.983472	0.180523	-0.013931	-0.180579	-0.983556	0.002868	-0.013184	0.005336	0.999899	
3741														-0.120035	0.062176	9.770319	-0.983472	0.180523	-0.013932	-0.180580	-0.983556	0.002891	-0.013181	0.005359	0.999899	
3742														-0.120420	0.062738	9.784960	-0.983469	0.180540	-0.013927	-0.180596	-0.983553	0.002883	-0.013177	0.005351	0.999899	
3743														-0.135133	0.062318	9.784737	-0.983461	0.180586	-0.013907	-0.180642	-0.983545	0.002879	-0.013158	0.005343	0.999899	
3744														-0.119807	0.062230	9.741024	-0.983458	0.180602	-0.013887	-0.180658	-0.983542	0.002874	-0.013139	0.005336	0.999899	
3745														-0.105405	0.063286	9.755887	-0.983458	0.180603	-0.013870	-0.180659	-0.983542	0.002885	-0.013120	0.005343	0.999900	
3746														-0.120046	0.063016	9.755665	-0.983447	0.180664	-0.013853	-0.180720	-0.983530	0.002896	-0.013102	0.005351	0.999900	
3747														-0.120693	0.078000	9.770033	-0.983423	0.180801	-0.013798	-0.180856	-0.983505	0.002866	-0.013053	0.005314	0.999901	
3748														-0.135268	0.077810	9.784460	-0.983263	0.181672	-0.013758	-0.181728	-0.983345	0.002875	-0.013007	0.005327	0.999901	
3749														-0.118695	0.034589	9.770868	-0.983232	0.181838	-0.013760	-0.181894	-0.983314	0.002895	-0.013004	0.005350	0.999901	
3750														-0.119947	0.064157	9.770308	-0.983229	0.181855	-0.013755	-0.181910	-0.983311	0.002888	-0.013000	0.005341	0.999901	
3751														-0.134197	0.049612	9.785009	-0.983230	0.181856	-0.013714	-0.181912	-0.983311	0.002935	-0.012951	0.005380	0.999902	
3752														-0.190131	0.064580	9.769246	-0.983222	0.181934	-0.013223	-0.181995	-0.983293	0.003524	-0.012361	0.005872	0.999906	
3753														-0.527396	0.154689	9.851059	-0.983412	0.181085	-0.010451	-0.181157	-0.983433	0.006409	-0.009118	0.008196	0.999925	
3754														0.167731	0.035897	9.671921	-0.983955	0.178223	-0.008282	-0.178293	-0.983939	0.008711	-0.006596	0.010048	0.999928	
3755														-0.102097	0.124971	9.799023	-0.984160	0.177100	-0.008067	-0.177168	-0.984141	0.008813	-0.006378	0.010102	0.999929	
3756														0.196423	0.035186	9.789228	-0.984152	0.177146	-0.007972	-0.177214	-0.984133	0.008824	-0.006282	0.010097	0.999929	
3757														-0.054368	0.082383	9.756504	-0.984095	0.177463	-0.007978	-0.177531	-0.984076	0.008781	-0.006293	0.010057	0.999930	
3758														-0.083086	0.052296	9.771596	-0.983945	0.178289	-0.008044	-0.178357	-0.983927	0.008770	-0.006351	0.010064	0.999929	
3759														-0.026574	0.083000	9.742099	-0.983630	0.180015	-0.008154	-0.180084	-0.983613	0.008621	-0.006469	0.009948	0.999930	
3760														-0.046911	0.156090	9.784172	-0.983368	0.181424	-0.008490	-0.181495	-0.983355	0.008521	-0.006802	0.009920	0.999928	
3761														-0.078311	0.154924	9.783901	-0.983274	0.181934	-0.008561	-0.182005	-0.983261	0.008480	-0.006875	0.009896	0.999927	
3762														-0.045080	0.039371	9.772279	-0.983117	0.182774	-0.008608	-0.182847	-0.983104	0.008598	-0.006891	0.010027	0.999926	
3763														-0.062403	0.099622	9.800030	-0.982800	0.184470	-0.008636	-0.184544	-0.982786	0.008731	-0.006877	0.010175	0.999925	
3764														-0.062751	0.129592	9.755380	-0.982696	0.185026	-0.008596	-0.185100	-0.982679	0.008900	-0.006801	0.010337	0.999923	
3765														-0.017757	0.102824	9.756467	-0.982506	0.186031	-0.008632	-0.186106	-0.982490	0.008879	-0.006829	0.010330	0.999923	
3766														-0.078759	0.145986	9.798806	-0.982369	0.186751	-0.008682	-0.186826	-0.982353	0.008872	-0.006872	0.010338	0.999923	
3767														-0.034017	0.118285	9.785259	-0.982229	0.187486	-0.008679	-0.187562	-0.982212	0.008908	-0.006855	0.010377	0.999923	
3768														-0.107818	0.146006	9.769228	-0.982172	0.187787	-0.008651	-0.187863	-0.982153	0.009075	-0.006793	0.010539	0.999921	
3769														-0.048250	0.120345	9.785098	-0.982269	0.187278	-0.008641	-0.187355	-0.982250	0.009149	-0.006774	0.010606	0.999921	
3770														-0.034516	0.166187	9.769484	-0.982440	0.186380	-0.008574	-0.186458	-0.982418	0.009424	-0.006666	0.010858	0.999919	
3771														0.053666	0.142759	9.814897	-0.982641	0.185314	-0.008673	-0.185394	-0.982619	0.009463	-0.006769	0.010907	0.999918	
3772														-0.111095	0.223832	9.738027	-0.982961	0.183604	-0.008780	-0.183684	-0.982939	0.009503	-0.006885	0.010954	0.999916	
3773														0.016133	0.275373	9.796666	-0.983374	0.181365	-0.009040	-0.181450	-0.983353	0.009640	-0.007141	0.011120	0.999913	
3774														-0.072395	0.243346	9.796559	-0.983853	0.178754	-0.009005	-0.178838	-0.983832	0.009574	-0.007148	0.011030	0.999914	
3775														-0.051138	0.082334	9.771455	-0.984383	0.175811	-0.008993	-0.175895	-0.984362	0.009646	-0.007156	0.011077	0.999913	
3776														-0.038882	0.127339	9.770479	-0.984949	0.172610	-0.008996	-0.172694	-0.984928	0.009654	-0.007194	0.011062	0.999913	
3777														-0.080469	0.361613	9.793545	-0.985539	0.169212	-0.008969	-0.169297	-0.985516	0.009839	-0.007174	0.011215	0.999911	
3778														-0.011932	0.438648	9.763045	-0.986190	0.165376	-0.008914	-0.165461	-0.986167	0.009831	-0.007165	0.011170	0.999912	
3779														-0.198327	0.354062	9.763175	-0.986846	0.161434	-0.008657	-0.161516	-0.986822	0.009753	-0.006969	0.011023	0.999915	
3780														-0.066037	0.167362	9.776524	-0.987499	0.157334	-0.008639	-0.157415	-0.987476	0.009707	-0.007003	0.010945	0.999916	
3781														0.066252	-0.019338	9.789873	-0.988152	0.153234	-0.008620	-0.153315	-0.988130	0.009661	-0.007037	0.010868	0.999916	
3782														-0.381144	0.216903	9.720657	-0.988876	0.148517	-0.008120	-0.148590	-0.988856	0.009243	-0.006657	0.010347	0.999924	
3783														-0.089901	0.426859	9.748006	-0.989671	0.143105	-0.008453	-0.143182	-0.989653	0.009247	-0.007042	0.010362	0.999922	
3784														0.103039	0.355119	9.810482	-0.990547	0.136924	-0.008230	-0.136997	-0.990530	0.009063	-0.006911	0.010105	0.999925	
3785														-0.021892	0.093531	9.815349	-0.991242	0.131811	-0.008099	-0.131882	-0.991225	0.008965	-0.006846	0.009954	0.999927	
3786														0.033719	-0.021829	9.730758	-0.992025	0.125783	-0.008059	-0.125854	-0.992009	0.008917	-0.006873	0.009860	0.999928	
3787														0.051222	-0.209293	9.794018	-0.992715	0.120202	-0.008216	-0.120275	-0.992700	0.008987	-0.007076	0.009910	0.999926	
3788														-0.032616	0.033024	9.772725	-0.993323	0.115074	-0.008235	-0.115147	-0.993307	0.009034	-0.007140	0.009921	0.999925	
3789														-0.025261	0.225233	9.753633	-0.993916	0.109818	-0.008375	-0.109893	-0.993903	0.008983	-0.007337	0.009848	0.999925	
3790														-0.172800	0.208695	9.766937	-0.994511	0.104303	-0.008322	-0.104377	-0.994497	0.008997	-0.007337	0.009816	0.999925	
3791														-0.218077	0.203745	9.810461	-0.995088	0.098646	-0.008327	-0.098720	-0.995074	0.009003	-0.007398	0.009781	0.999925	
3792														-0.116814	0.214303	9.738164	-0.995630	0.093016	-0.008328	-0.093090	-0.995616	0.009071	-0.007447	0.009807	0.999924	
3793														-0.055788	0.075159	9.771487	-0.996152	0.087244	-0.008335	-0.087318	-0.996140	0.009000	-0.007518	0.009694	0.999925	
3794														0.098095	-0.184649	9.764843	-0.996661	0.081224	-0.008334	-0.081299	-0.996648	0.009087	-0.007568	0.009734	0.999924	
3795														0.135672	-0.029358	9.776383	-0.997151	0.074970	-0.008372	-0.075046	-0.997138	0.009153	-0.007662	0.009756	0.999923	
3796														-0.039279	0.242269	9.782473	-0.997630	0.068285	-0.008429	-0.068362	-0.997618	0.009174	-0.007783	0.009728	0.999922	
3797														-0.170717	0.400576	9.821036	-0.998063	0.061641	-0.008415	-0.061717	-0.998052	0.009127	-0.007836	0.009629	0.999923	
3798														-0.043671	0.075421	9.727683	-0.998450	0.055058	-0.008157	-0.055129	-0.998440	0.008869	-0.007656	0.009305	0.999927	
3799														-0.047812	-0.074558	9.760350	-0.998787	0.048557	-0.008215	-0.048630	-0.998777	0.008873	-0.007774	0.009262	0.999927	
3800														-0.006876	0.111741	9.756647	-0.999115	0.041257	-0.008244	-0.041330	-0.999105	0.008964	-0.007867	0.009297	0.999926	
3801														-0.088123	0.217561	9.782450	-0.999396	0.033721	-0.008355	-0.033796	-0.999388	0.009000	-0.008047	0.009277	0.999925	
3802														-0.061863	0.298202	9.810295	-0.999620	0.026274	-0.008369	-0.026349	-0.999612	0.008987	-0.008130	0.009204	0.999925	
3803														0.121667	0.124144	9.685001	-0.999792	0.018592	-0.008406	-0.018669	-0.999783	0.009188	-0.008233	0.009343	0.999922	
3804														-0.077800	0.071584	9.756661	-0.999910	0.010555	-0.008300	-0.010632	-0.999901	0.009270	-0.008202	0.009358	0.999923	
3805														-0.043541	0.112858	9.888106	-0.999958	0.003648	-0.008357	-0.003726	-0.999950	0.009311	-0.008323	0.009342	0.999922	
3806														-0.208238	0.042922	9.784710	-0.999960	-0.003169	-0.008357	0.003092	-0.999952	0.009251	-0.008386	0.009225	0.999922	
3807														-0.045733	0.121944	9.697376	-0.999917	-0.009880	-0.008252	0.009804	-0.999910	0.009187	-0.008342	0.009106	0.999924	
3808														-0.192892	-0.029066	9.889080	-0.999826	-0.016672	-0.008325	0.016595	-0.999820	0.009227	-0.008478	0.009087	0.999923	
3809														-0.083581	-0.098658	9.701768	-0.999702	-0.022972	-0.008256	0.022896	-0.999696	0.009157	-0.008463	0.008965	0.999924	
3810														-0.237498	0.089627	9.768451	-0.999556	-0.028614	-0.008271	0.028538	-0.999551	0.009089	-0.008528	0.008849	0.999924	
3811														-0.074280	0.040333	9.786688	-0.999402	-0.033594	-0.008208	0.033520	-0.999397	0.009070	-0.008508	0.008790	0.999925	
3812														-0.134038	0.038872	9.756489	-0.999237	-0.038207	-0.008157	0.038132	-0.999231	0.009125	-0.008499	0.008807	0.999925	
3813														-0.143708	-0.038860	9.802013	-0.999041	-0.043020	-0.008093	0.042946	-0.999036	0.009075	-0.008476	0.008719	0.999926	
3814														-0.141835	0.065827	9.770399	-0.998816	-0.047972	-0.008083	0.047900	-0.998812	0.008959	-0.008504	0.008562	0.999927	
3815														-0.150967	0.093941	9.813586	-0.998546	-0.053295	-0.008096	0.053222	-0.998542	0.008967	-0.008562	0.008523	0.999927	
3816														-0.012146	0.192463	9.755020	-0.998256	-0.058465	-0.008118	0.058392	-0.998254	0.008881	-0.008623	0.008392	0.999928	
3817														-0.133979	0.188132	9.797137	-0.997997	-0.062755	-0.007969	0.062685	-0.997994	0.008819	-0.008507	0.008302	0.999929	
3818														-0.089225	0.091537	9.741308	-0.997714	-0.067123	-0.007799	0.067055	-0.997712	0.008682	-0.008364	0.008139	0.999932	
3819														-0.065820	-0.086330	9.745462	-0.997387	-0.071830	-0.007721	0.071763	-0.997385	0.008601	-0.008319	0.008025	0.999933	
3820														-0.178249	-0.119828	9.788336	-0.997057	-0.076262	-0.007782	0.076194	-0.997055	0.008691	-0.008422	0.008073	0.999932	
3821														-0.171441	0.005739	9.800427	-0.996742	-0.080278	-0.007787	0.080210	-0.996739	0.008783	-0.008466	0.008130	0.999931	
3822														-0.128022	0.064285	9.741270	-0.996478	-0.083494	-0.007766	0.083425	-0.996475	0.008826	-0.008476	0.008147	0.999931	
3823														-0.088251	-0.060682	9.759252	-0.996261	-0.086048	-0.007708	0.085979	-0.996258	0.008867	-0.008442	0.008171	0.999931	
3824														-0.092910	0.001085	9.816473	-0.996069	-0.088248	-0.007697	0.088179	-0.996065	0.008871	-0.008450	0.008158	0.999931	
3825														-0.161220	0.069445	9.755270	-0.995893	-0.090202	-0.007759	0.090133	-0.995891	0.008778	-0.008519	0.008043	0.999931	
3826														-0.124886	0.097440	9.799225	-0.995746	-0.091816	-0.007679	0.091748	-0.995743	0.008784	-0.008453	0.008042	0.999932	
3827														-0.040676	0.170864	9.784391	-0.995604	-0.093354	-0.007644	0.093287	-0.995601	0.008770	-0.008429	0.008019	0.999932	
3828														-0.081692	0.063752	9.742036	-0.995461	-0.094876	-0.007519	0.094809	-0.995457	0.008778	-0.008318	0.008025	0.999933	
3829														-0.055606	-0.109996	9.819461	-0.995333	-0.096200	-0.007602	0.096132	-0.995329	0.008893	-0.008423	0.008121	0.999932	
3830														-0.078395	-0.041310	9.773663	-0.995206	-0.097507	-0.007595	0.097440	-0.995203	0.008785	-0.008415	0.008003	0.999933	
3831														-0.074183	0.084005	9.785710	-0.995069	-0.098892	-0.007598	0.098824	-0.995065	0.008860	-0.008437	0.008065	0.999932	
3832														-0.004989	0.246040	9.754097	-0.994915	-0.100430	-0.007609	0.100362	-0.994912	0.008844	-0.008459	0.008035	0.999932	
3833														-0.061254	0.134587	9.784850	-0.994758	-0.101969	-0.007626	0.101902	-0.994757	0.008674	-0.008471	0.007852	0.999933	
3834														-0.069666	0.022162	9.757785	-0.994581	-0.103691	-0.007592	0.103624	-0.994579	0.008693	-0.008452	0.007859	0.999933	
3835														-0.084435	0.110734	9.770317	-0.994400	-0.105414	-0.007573	0.105347	-0.994397	0.008725	-0.008450	0.007879	0.999933	
3836														-0.084730	0.111060	9.770311	-0.994206	-0.107229	-0.007568	0.107162	-0.994203	0.008743	-0.008461	0.007881	0.999933	
3837														-0.093655	0.091798	9.755913	-0.994019	-0.108951	-0.007526	0.108885	-0.994017	0.008639	-0.008422	0.007768	0.999934	
3838														-0.116160	-0.023299	9.801935	-0.993849	-0.110489	-0.007513	0.110422	-0.993846	0.008731	-0.008431	0.007848	0.999934	
3839														-0.106902	0.041283	9.756770	-0.993689	-0.111918	-0.007450	0.111852	-0.993686	0.008734	-0.008380	0.007845	0.999934	
3840														-0.098171	0.060289	9.771168	-0.993526	-0.113364	-0.007462	0.113298	-0.993523	0.008717	-0.008402	0.007815	0.999934	
3841														-0.104486	0.120964	9.799081	-0.993346	-0.114932	-0.007427	0.114867	-0.993343	0.008704	-0.008378	0.007792	0.999935	
3842														-0.114281	0.148633	9.783678	-0.993119	-0.116870	-0.007424	0.116804	-0.993116	0.008783	-0.008399	0.007855	0.999934	
3843														-0.017479	0.137599	9.800224	-0.992919	-0.118561	-0.007420	0.118495	-0.992916	0.008799	-0.008410	0.007857	0.999934	
3844														-0.016803	0.137308	9.756286	-0.992713	-0.120283	-0.007342	0.120217	-0.992708	0.008865	-0.008354	0.007918	0.999934	
3845														-0.044818	0.128217	9.770662	-0.992508	-0.121959	-0.007367	0.121893	-0.992504	0.008865	-0.008393	0.007900	0.999934	
3846														-0.077948	-0.039075	9.788320	-0.992314	-0.123527	-0.007301	0.123461	-0.992310	0.008837	-0.008337	0.007868	0.999934	
3847														-0.047393	0.049813	9.772297	-0.992097	-0.125264	-0.007268	0.125198	-0.992092	0.008901	-0.008326	0.007921	0.999934	
3848														-0.105702	0.122746	9.784397	-0.991850	-0.127201	-0.007304	0.127135	-0.991846	0.008856	-0.008371	0.007855	0.999934	
3849														-0.113140	0.057418	9.785660	-0.991616	-0.129014	-0.007236	0.128949	-0.991612	0.008846	-0.008316	0.007839	0.999935	
3850														-0.240413	0.149674	9.752188	-0.991341	-0.131119	-0.007148	0.131055	-0.991336	0.008823	-0.008243	0.007810	0.999936	
3851														-0.084946	0.067682	9.771277	-0.991029	-0.133456	-0.007155	0.133391	-0.991023	0.008919	-0.008281	0.007885	0.999935	
3852														-0.097229	0.141033	9.754850	-0.990703	-0.135853	-0.007168	0.135789	-0.990699	0.008817	-0.008299	0.007762	0.999935	
3853														-0.053762	0.189447	9.783887	-0.990357	-0.138358	-0.007139	0.138293	-0.990352	0.008840	-0.008293	0.007768	0.999935	
3854														-0.016662	0.173447	9.799537	-0.989986	-0.140985	-0.007110	0.140920	-0.989981	0.008910	-0.008295	0.007819	0.999935	
3855														-0.109427	0.089515	9.726440	-0.989575	-0.143843	-0.007093	0.143778	-0.989569	0.008965	-0.008309	0.007852	0.999935	
3856														-0.010728	0.035611	9.787947	-0.989160	-0.146669	-0.007089	0.146604	-0.989155	0.008958	-0.008326	0.007822	0.999935	
3857														-0.091175	0.161020	9.769206	-0.988707	-0.149694	-0.007022	0.149630	-0.988702	0.008941	-0.008281	0.007789	0.999935	
3858														-0.099760	0.062934	9.756488	-0.988264	-0.152597	-0.007019	0.152532	-0.988258	0.008980	-0.008307	0.007804	0.999935	
3859														-0.037934	0.104683	9.800661	-0.987759	-0.155835	-0.006933	0.155771	-0.987753	0.008949	-0.008242	0.007759	0.999936	
3860														-0.136067	0.111960	9.784107	-0.987192	-0.159382	-0.007011	0.159318	-0.987187	0.008914	-0.008342	0.007683	0.999936	
3861														-0.037871	0.024262	9.743761	-0.986529	-0.163434	-0.007039	0.163370	-0.986524	0.008930	-0.008404	0.007660	0.999935	
3862														0.081190	-0.035492	9.820435	-0.985988	-0.166671	-0.006953	0.166607	-0.985983	0.008868	-0.008333	0.007586	0.999937	
3863														-0.214303	0.029415	9.769749	-0.985511	-0.169476	-0.006837	0.169415	-0.985507	0.008667	-0.008207	0.007383	0.999939	
3864														-0.158735	0.011593	9.767435	-0.985100	-0.171837	-0.006723	0.171777	-0.985096	0.008568	-0.008095	0.007286	0.999941	
3865														-0.103168	-0.006230	9.765120	-0.984689	-0.174197	-0.006608	0.174139	-0.984685	0.008469	-0.007982	0.007189	0.999942	
3866														-0.131640	0.249939	9.751989	-0.984244	-0.176695	-0.006546	0.176639	-0.984240	0.008325	-0.007914	0.007038	0.999944	
3867														-0.362893	0.229559	9.733616	-0.983867	-0.178781	-0.006628	0.178725	-0.983864	0.008311	-0.008007	0.006993	0.999943	
3868														0.228113	-0.072846	9.794370	-0.983418	-0.181233	-0.006630	0.181177	-0.983415	0.008302	-0.008025	0.006963	0.999944	
3869														-0.043242	0.001281	9.787966	-0.982946	-0.183777	-0.006614	0.183722	-0.982944	0.008234	-0.008015	0.006878	0.999944	
3870														-0.060919	0.041429	9.786830	-0.982496	-0.186168	-0.006618	0.186112	-0.982494	0.008254	-0.008039	0.006878	0.999944	
3871														-0.047727	0.047503	9.772307	-0.982072	-0.188389	-0.006639	0.188332	-0.982070	0.008319	-0.008088	0.006920	0.999943	
3872														-0.045413	0.113342	9.785677	-0.981655	-0.190549	-0.006659	0.190493	-0.981654	0.008262	-0.008111	0.006842	0.999944	
3873														-0.023300	0.170851	9.770271	-0.981225	-0.192754	-0.006649	0.192698	-0.981224	0.008252	-0.008115	0.006816	0.999944	
3874														0.031233	0.083342	9.773056	-0.980746	-0.195173	-0.006697	0.195117	-0.980745	0.008242	-0.008176	0.006777	0.999944	
3875														-0.002920	0.052086	9.743769	-0.980243	-0.197684	-0.006684	0.197626	-0.980242	0.008356	-0.008204	0.006870	0.999943	
3876														-0.036559	0.054617	9.772417	-0.979721	-0.200255	-0.006685	0.200198	-0.979720	0.008348	-0.008221	0.006841	0.999943	
3877														-0.095398	0.075871	9.770890	-0.979163	-0.202963	-0.006759	0.202906	-0.979163	0.008264	-0.008296	0.006720	0.999943	
3878														-0.087750	0.161282	9.827932	-0.978557	-0.205869	-0.006724	0.205812	-0.978557	0.008228	-0.008274	0.006668	0.999944	
3879														-0.093189	0.139135	9.740344	-0.977866	-0.209124	-0.006654	0.209069	-0.977868	0.008058	-0.008192	0.006488	0.999945	
3880														-0.374671	0.185220	9.778081	-0.977155	-0.212425	-0.006647	0.212371	-0.977156	0.008025	-0.008200	0.006430	0.999946	
3881														0.134201	0.100611	9.774711	-0.976300	-0.216321	-0.006633	0.216267	-0.976302	0.007950	-0.008195	0.006327	0.999946	
3882														-0.090078	0.059048	9.785934	-0.975363	-0.220506	-0.006662	0.220452	-0.975366	0.007924	-0.008245	0.006260	0.999946	
3883														-0.088835	0.155920	9.769409	-0.974394	-0.224749	-0.006643	0.224697	-0.974398	0.007760	-0.008217	0.006069	0.999948	
3884														-0.042666	0.128098	9.741520	-0.973479	-0.228684	-0.006521	0.228632	-0.973482	0.007778	-0.008127	0.006081	0.999948	
3885														0.015332	0.206838	9.785085	-0.972527	-0.232696	-0.006613	0.232645	-0.972532	0.007645	-0.008210	0.005896	0.999949	
3886														-0.340283	0.324074	9.805320	-0.971614	-0.236476	-0.006662	0.236426	-0.971620	0.007509	-0.008249	0.005721	0.999950	
3887														0.209894	0.008868	9.778019	-0.970580	-0.240682	-0.006783	0.240632	-0.970588	0.007439	-0.008374	0.005588	0.999949	
3888														0.183613	0.092723	9.717346	-0.969294	-0.245813	-0.006771	0.245764	-0.969302	0.007284	-0.008354	0.005396	0.999951	
3889														-0.092956	0.052049	9.815241	-0.967877	-0.251335	-0.006678	0.251287	-0.967885	0.007314	-0.008302	0.005401	0.999951	
3890														-0.000175	0.034225	9.788100	-0.966282	-0.257400	-0.006607	0.257351	-0.966289	0.007409	-0.008292	0.005459	0.999951	
3891														-0.129967	-0.002084	9.756896	-0.964552	-0.263810	-0.006641	0.263762	-0.964560	0.007371	-0.008350	0.005358	0.999951	
3892														-0.067141	0.065305	9.771563	-0.962769	-0.270244	-0.006597	0.270195	-0.962777	0.007424	-0.008358	0.005366	0.999951	
3893														-0.118040	0.004473	9.786307	-0.961007	-0.276444	-0.006633	0.276395	-0.961016	0.007401	-0.008420	0.005279	0.999951	
3894														-0.150153	0.120257	9.754249	-0.959318	-0.282246	-0.006746	0.282195	-0.959327	0.007530	-0.008597	0.005320	0.999949	
3895														-0.206018	0.243374	9.780179	-0.957588	-0.288058	-0.006945	0.288005	-0.957597	0.007800	-0.008898	0.005469	0.999945	
3896														-0.108529	0.216773	9.768049	-0.955805	-0.293922	-0.006873	0.293868	-0.955813	0.007911	-0.008895	0.005541	0.999945	
3897														-0.053387	0.062393	9.742726	-0.953991	-0.299755	-0.006897	0.299701	-0.954001	0.007886	-0.008944	0.005456	0.999945	
3898														-0.092909	0.040632	9.800900	-0.952109	-0.305681	-0.006875	0.305627	-0.952119	0.007845	-0.008944	0.005368	0.999946	
3899														-0.109777	0.182726	9.754025	-0.950204	-0.311554	-0.006820	0.311501	-0.950213	0.007878	-0.008934	0.005361	0.999946	
3900														-0.059823	0.181610	9.843048	-0.948168	-0.317696	-0.006798	0.317644	-0.948178	0.007795	-0.008922	0.005231	0.999947	
3901														-0.130877	0.114831	9.798747	-0.945926	-0.324238	-0.006779	0.324185	-0.945936	0.007852	-0.008959	0.005230	0.999946	
3902														-0.201932	0.048051	9.754446	-0.943684	-0.330779	-0.006761	0.330726	-0.943694	0.007910	-0.008997	0.005228	0.999946	
3903														-0.080884	0.100461	9.814764	-0.941497	-0.336955	-0.006719	0.336902	-0.941506	0.007902	-0.008989	0.005176	0.999946	
3904														-0.077407	0.013674	9.757742	-0.939354	-0.342884	-0.006757	0.342831	-0.939364	0.007882	-0.009050	0.005087	0.999946	
3905														0.040851	0.020489	9.745563	-0.937114	-0.348961	-0.006657	0.348909	-0.937124	0.007854	-0.008979	0.005037	0.999947	
3906														0.146479	0.074607	9.776261	-0.934573	-0.355712	-0.006548	0.355660	-0.934582	0.007831	-0.008905	0.004990	0.999948	
3907														0.185607	0.046269	9.718954	-0.931446	-0.363823	-0.006362	0.363775	-0.931456	0.007585	-0.008686	0.004750	0.999951	
3908														0.139379	0.088810	9.775840	-0.927605	-0.373508	-0.006346	0.373459	-0.927615	0.007701	-0.008763	0.004774	0.999950	
3909														0.202772	0.100666	9.777118	-0.923735	-0.382980	-0.006393	0.382931	-0.923745	0.007622	-0.008824	0.004593	0.999951	
3910														-0.115425	-0.108662	9.802748	-0.919678	-0.392623	-0.006278	0.392575	-0.919688	0.007624	-0.008767	0.004547	0.999951	
3911														-0.166270	-0.186678	9.758837	-0.915584	-0.402076	-0.006374	0.402029	-0.915596	0.007520	-0.008860	0.004323	0.999951	
3912														-0.070126	-0.023165	9.816984	-0.911123	-0.412087	-0.006331	0.412040	-0.911135	0.007533	-0.008872	0.004255	0.999952	
3913														-0.139025	-0.005206	9.756495	-0.906528	-0.422098	-0.006305	0.422052	-0.906541	0.007518	-0.008889	0.004154	0.999952	
3914														-0.290015	0.135764	9.765479	-0.901718	-0.432278	-0.006338	0.432232	-0.901731	0.007510	-0.008962	0.004033	0.999952	
3915														-0.062963	0.222927	9.740142	-0.896665	-0.442665	-0.006319	0.442620	-0.896679	0.007394	-0.008940	0.003833	0.999953	
3916														-0.090804	0.069311	9.800409	-0.891758	-0.452469	-0.006246	0.452424	-0.891772	0.007419	-0.008927	0.003791	0.999953	
3917														-0.112027	0.048710	9.741590	-0.886757	-0.462194	-0.006201	0.462150	-0.886771	0.007341	-0.008892	0.003644	0.999954	
3918														-0.098648	0.015561	9.749688	-0.881648	-0.471743	-0.006179	0.471701	-0.881663	0.007234	-0.008860	0.003464	0.999955	
3919														-0.085269	-0.017587	9.757786	-0.876538	-0.481293	-0.006158	0.481251	-0.876554	0.007127	-0.008828	0.003283	0.999956	
3920														-0.262799	-0.030646	9.797656	-0.871389	-0.490554	-0.006145	0.490511	-0.871404	0.007313	-0.008942	0.003358	0.999954	
3921														-0.237630	0.069746	9.767566	-0.866268	-0.499542	-0.006112	0.499500	-0.866284	0.007233	-0.008908	0.003212	0.999955	
3922														-0.017044	0.174910	9.742192	-0.861580	-0.507584	-0.006139	0.507543	-0.861597	0.007136	-0.008911	0.003032	0.999956	
3923														-0.181248	0.299955	9.721979	-0.857223	-0.514909	-0.006147	0.514870	-0.857241	0.006829	-0.008786	0.002689	0.999958	
3924														-0.246423	0.360224	9.778326	-0.852605	-0.522519	-0.006177	0.522482	-0.852624	0.006761	-0.008800	0.002537	0.999958	
3925														-0.229470	0.192586	9.839463	-0.847722	-0.530405	-0.006061	0.530370	-0.847741	0.006626	-0.008653	0.002403	0.999960	
3926														-0.062125	0.252368	9.725616	-0.842846	-0.538122	-0.006021	0.538088	-0.842864	0.006425	-0.008533	0.002176	0.999961	
3927														-0.105457	0.147659	9.813749	-0.837953	-0.545709	-0.006063	0.545675	-0.837972	0.006392	-0.008569	0.002048	0.999961	
3928														-0.191358	-0.095100	9.755807	-0.832869	-0.553438	-0.006031	0.553405	-0.832888	0.006333	-0.008528	0.001937	0.999962	
3929														-0.025053	-0.110519	9.789345	-0.827593	-0.561296	-0.006086	0.561263	-0.827613	0.006386	-0.008622	0.001869	0.999961	
3930														-0.081824	0.000681	9.801357	-0.822402	-0.568874	-0.006047	0.568842	-0.822423	0.006295	-0.008554	0.001738	0.999962	
3931														-0.071599	0.187170	9.770309	-0.817075	-0.576499	-0.006096	0.576466	-0.817096	0.006393	-0.008666	0.001710	0.999961	
3932														-0.061471	0.177122	9.756037	-0.811766	-0.583953	-0.005914	0.583922	-0.811786	0.006243	-0.008446	0.001614	0.999963	
3933														-0.133193	0.140575	9.798603	-0.806162	-0.591665	-0.005915	0.591634	-0.806182	0.006256	-0.008470	0.001544	0.999963	
3934														0.017958	-0.045234	9.774954	-0.800652	-0.599102	-0.005825	0.599072	-0.800672	0.006124	-0.008332	0.001414	0.999964	
3935														-0.052693	0.052055	9.786849	-0.795171	-0.606358	-0.005743	0.606330	-0.795191	0.006038	-0.008228	0.001319	0.999965	
3936														-0.087493	0.099003	9.726912	-0.789715	-0.613447	-0.005757	0.613419	-0.789735	0.005956	-0.008200	0.001172	0.999966	
3937														-0.349716	-0.014015	9.867940	-0.784521	-0.620075	-0.005745	0.620048	-0.784541	0.005878	-0.008152	0.001050	0.999966	
3938														-0.304459	-0.086796	9.708521	-0.779052	-0.626935	-0.005564	0.626909	-0.779071	0.005704	-0.007910	0.000955	0.999968	
3939														-0.037897	-0.052871	9.802763	-0.773235	-0.634095	-0.005543	0.634070	-0.773255	0.005710	-0.007907	0.000901	0.999968	
3940														0.117867	0.033884	9.805911	-0.766987	-0.641641	-0.005289	0.641615	-0.767004	0.005949	-0.007874	0.001169	0.999968	
3941														-0.055384	0.354770	9.739926	-0.760283	-0.649579	-0.004186	0.649542	-0.760288	0.007605	-0.008123	0.003063	0.999962	
3942														-0.018945	0.099186	9.860602	-0.753537	-0.657393	-0.004121	0.657357	-0.753543	0.007450	-0.008003	0.002905	0.999964	
3943														-0.048884	-0.003970	9.655741	-0.746617	-0.665242	-0.004085	0.665207	-0.746622	0.007430	-0.007993	0.002830	0.999964	
3944														0.102754	-0.053266	9.894622	-0.739074	-0.673614	-0.003648	0.673576	-0.739075	0.007960	-0.008058	0.003426	0.999962	
3945														-0.299167	0.028533	9.722316	-0.731737	-0.681578	-0.003534	0.681538	-0.731737	0.008157	-0.008146	0.003561	0.999960	
3946														-0.110805	0.078154	9.799929	-0.724539	-0.689225	-0.003425	0.689187	-0.724538	0.008101	-0.008065	0.003509	0.999961	
3947														0.496754	-0.031597	9.772883	-0.717401	-0.696652	-0.003385	0.696611	-0.717400	0.008329	-0.008231	0.003617	0.999960	
3948														0.034173	-0.185960	9.747799	-0.711085	-0.703098	-0.003372	0.703058	-0.711084	0.008333	-0.008256	0.003555	0.999960	
3949														0.092795	-0.064764	9.718820	-0.703852	-0.710339	-0.003270	0.710298	-0.703851	0.008433	-0.008292	0.003613	0.999959	
3950														-0.204889	0.012467	9.798147	-0.697558	-0.716521	-0.003201	0.716481	-0.697557	0.008308	-0.008186	0.003501	0.999960	
3951														-0.071833	-0.168621	9.803356	-0.691378	-0.722486	-0.003165	0.722447	-0.691377	0.008300	-0.008185	0.003452	0.999961	
3952														-0.264850	-0.006451	9.826022	-0.685482	-0.728083	-0.003096	0.728044	-0.685480	0.008262	-0.008137	0.003409	0.999961	
3953														-0.379206	0.409476	9.731265	-0.678911	-0.734214	-0.003077	0.734175	-0.678910	0.008183	-0.008098	0.003296	0.999962	
3954														-0.420138	0.276237	9.746108	-0.672028	-0.740520	-0.002976	0.740484	-0.672027	0.008003	-0.007926	0.003175	0.999964	
3955														-0.501055	0.032610	9.790111	-0.665005	-0.746834	-0.002778	0.746800	-0.665003	0.007826	-0.007692	0.003129	0.999966	
3956														-0.498903	0.093491	9.789654	-0.657931	-0.753073	-0.002807	0.753039	-0.657930	0.007798	-0.007720	0.003017	0.999966	
3957														-0.385997	0.277628	9.820436	-0.650746	-0.759291	-0.002646	0.759259	-0.650745	0.007566	-0.007467	0.002915	0.999968	
3958														-0.262120	-0.000772	9.825923	-0.643733	-0.765247	-0.002423	0.765216	-0.643730	0.007438	-0.007252	0.002934	0.999969	
3959														0.110732	-0.053952	9.660145	-0.637878	-0.770134	-0.002502	0.770104	-0.637877	0.007330	-0.007241	0.002749	0.999970	
3960														-0.321238	0.202010	9.822866	-0.632364	-0.774667	-0.002492	0.774640	-0.632365	0.006882	-0.006907	0.002422	0.999973	
3961														-0.516110	0.532047	9.771775	-0.626445	-0.779461	-0.002687	0.779437	-0.626448	0.006345	-0.006629	0.001881	0.999976	
3962														0.045733	0.125376	9.671765	-0.620160	-0.784463	-0.004432	0.784447	-0.620176	0.005054	-0.006714	-0.000342	0.999977	
3963														0.326946	-0.289968	9.739250	-0.614910	-0.788582	-0.004966	0.788569	-0.614929	0.004584	-0.006668	-0.001098	0.999977	
3964														0.028574	0.017662	9.891685	-0.609240	-0.792970	-0.005026	0.792957	-0.609260	0.004682	-0.006775	-0.001133	0.999976	
3965														0.157427	0.010656	9.719202	-0.603795	-0.797123	-0.005059	0.797111	-0.603815	0.004589	-0.006712	-0.001262	0.999977	
3966														0.224274	-0.049738	9.779750	-0.598719	-0.800943	-0.005155	0.800930	-0.598740	0.004741	-0.006884	-0.001291	0.999975	
3967														0.184166	-0.064058	9.808109	-0.594265	-0.804252	-0.005254	0.804239	-0.594287	0.004724	-0.006922	-0.001418	0.999975	
3968														-0.115260	-0.176326	9.727337	-0.590605	-0.806944	-0.005288	0.806930	-0.590627	0.004868	-0.007051	-0.001392	0.999974	
3969														-0.508291	0.300070	9.789139	-0.585562	-0.810610	-0.005308	0.810596	-0.585584	0.004961	-0.007130	-0.001398	0.999974	
3970														-0.703228	0.610283	9.827220	-0.579850	-0.814706	-0.005383	0.814690	-0.579873	0.005149	-0.007317	-0.001400	0.999972	
3971														-0.006963	0.629489	9.816411	-0.573382	-0.819270	-0.005376	0.819255	-0.573406	0.005187	-0.007333	-0.001430	0.999972	
3972														0.378384	-0.288249	9.667376	-0.568120	-0.822927	-0.005525	0.822913	-0.568145	0.005024	-0.007273	-0.001692	0.999972	
3973														1.078109	-0.832501	9.818796	-0.563403	-0.826163	-0.005592	0.826149	-0.563428	0.005132	-0.007391	-0.001729	0.999971	
3974														1.001200	-0.249159	9.727943	-0.558484	-0.829496	-0.005704	0.829482	-0.558510	0.005081	-0.007400	-0.001893	0.999971	
3975														0.107764	-0.247603	9.879827	-0.552547	-0.833462	-0.005760	0.833448	-0.552574	0.005185	-0.007504	-0.001935	0.999970	
3976														-0.176327	-0.362081	9.725726	-0.546997	-0.837115	-0.005777	0.837102	-0.547023	0.005105	-0.007434	-0.002044	0.999970	
3977														-0.093321	-0.035432	9.815531	-0.541672	-0.840570	-0.005774	0.840558	-0.541698	0.005047	-0.007370	-0.002120	0.999971	
3978														-0.391557	-0.057590	9.704930	-0.536464	-0.843904	-0.005807	0.843891	-0.536491	0.005067	-0.007392	-0.002183	0.999970	
3979														-0.722007	0.295860	9.769131	-0.531562	-0.846999	-0.005891	0.846988	-0.531589	0.004889	-0.007272	-0.002391	0.999971	
3980														-0.171228	0.234208	9.769385	-0.526934	-0.849886	-0.005891	0.849876	-0.526962	0.004805	-0.007188	-0.002475	0.999971	
3981														0.100528	0.315061	9.762052	-0.522473	-0.852635	-0.005903	0.852626	-0.522500	0.004741	-0.007127	-0.002556	0.999971	
3982														0.192742	-0.067317	9.808469	-0.517125	-0.855890	-0.005881	0.855881	-0.517152	0.004658	-0.007028	-0.002624	0.999972	
3983														0.222610	-0.274081	9.765224	-0.511444	-0.859296	-0.005956	0.859288	-0.511471	0.004653	-0.007045	-0.002738	0.999971	
3984														0.085842	-0.124131	9.717655	-0.505932	-0.862553	-0.006019	0.862544	-0.505960	0.004724	-0.007120	-0.002801	0.999971	
3985														-0.092078	-0.148856	9.830075	-0.500448	-0.865745	-0.006039	0.865738	-0.500476	0.004662	-0.007058	-0.002896	0.999971	
3986														-0.030491	-0.317954	9.743651	-0.495091	-0.868821	-0.005975	0.868812	-0.495119	0.004727	-0.007065	-0.002850	0.999971	
3987														-0.054556	-0.082903	9.728549	-0.489726	-0.871855	-0.006146	0.871847	-0.489755	0.004745	-0.007147	-0.003035	0.999970	
3988														-0.065118	0.389110	9.831400	-0.484207	-0.874932	-0.006080	0.874925	-0.484235	0.004695	-0.007052	-0.003046	0.999970	
3989														-0.058137	0.477452	9.787819	-0.478912	-0.877841	-0.006185	0.877834	-0.478941	0.004716	-0.007102	-0.003171	0.999970	
3990														-0.031986	0.060521	9.744021	-0.473632	-0.880700	-0.006295	0.880694	-0.473662	0.004690	-0.007112	-0.003322	0.999969	
3991														0.078581	-0.332006	9.790270	-0.468347	-0.883521	-0.006487	0.883516	-0.468378	0.004668	-0.007162	-0.003545	0.999968	
3992														-0.144965	-0.322439	9.828125	-0.463240	-0.886209	-0.006485	0.886204	-0.463271	0.004673	-0.007146	-0.003582	0.999968	
3993														-0.115402	-0.088766	9.756148	-0.458057	-0.888898	-0.006625	0.888894	-0.458090	0.004661	-0.007178	-0.003754	0.999967	
3994														-0.218575	-0.079952	9.753358	-0.453310	-0.891329	-0.006489	0.891324	-0.453342	0.004752	-0.007177	-0.003630	0.999968	
3995														-0.153342	-0.186420	9.784164	-0.449150	-0.893431	-0.006696	0.893428	-0.449183	0.004689	-0.007198	-0.003876	0.999967	
3996														0.019378	-0.091444	9.774452	-0.445500	-0.895257	-0.006720	0.895253	-0.445533	0.004636	-0.007145	-0.003951	0.999967	
3997														0.064911	-0.026343	9.746564	-0.442013	-0.896983	-0.006774	0.896980	-0.442047	0.004595	-0.007115	-0.004045	0.999967	
3998														0.007135	0.060310	9.774590	-0.438373	-0.898766	-0.006926	0.898764	-0.438408	0.004703	-0.007263	-0.004163	0.999965	
3999														-0.064052	-0.121016	9.816056	-0.435150	-0.900330	-0.007129	0.900328	-0.435186	0.004779	-0.007406	-0.004339	0.999963	
4000														0.103148	-0.112505	9.718181	-0.432440	-0.901631	-0.007534	0.901629	-0.432481	0.004977	-0.007746	-0.004641	0.999959	
4001														0.608845	-0.099678	9.747390	-0.431318	-0.902165	-0.007975	0.902160	-0.431365	0.005558	-0.008454	-0.004798	0.999953	
4002														-0.357073	-0.114047	9.807861	-0.430726	-0.902445	-0.008226	0.902442	-0.430775	0.005585	-0.008584	-0.005018	0.999951	
4003														-0.507697	-0.128349	9.759510	-0.429887	-0.902847	-0.008039	0.902844	-0.429934	0.005427	-0.008355	-0.004925	0.999953	
4004														-0.243959	-0.300662	9.795713	-0.429849	-0.902866	-0.007956	0.902862	-0.429895	0.005491	-0.008378	-0.004823	0.999953	
4005														-0.022148	-0.389667	9.757774	-0.429997	-0.902795	-0.007998	0.902791	-0.430044	0.005477	-0.008384	-0.004865	0.999953	
4006														-0.041843	-0.042270	9.773236	-0.430103	-0.902744	-0.008032	0.902741	-0.430150	0.005442	-0.008368	-0.004910	0.999953	
4007														-0.076801	-0.065318	9.786797	-0.430239	-0.902679	-0.008045	0.902677	-0.430285	0.005414	-0.008349	-0.004933	0.999953	
4008														-0.093911	-0.076725	9.771611	-0.430232	-0.902682	-0.008086	0.902680	-0.430279	0.005435	-0.008385	-0.004960	0.999953	
4009														-0.065905	-0.007928	9.772709	-0.430262	-0.902667	-0.008162	0.902664	-0.430311	0.005522	-0.008497	-0.004992	0.999951	
4010														-0.033601	-0.033200	9.729813	-0.430167	-0.902701	-0.009351	0.902692	-0.430233	0.006863	-0.010219	-0.005489	0.999933	
4011														-0.163553	-0.014530	9.799491	-0.430133	-0.902709	-0.010122	0.902697	-0.430211	0.007484	-0.011110	-0.005918	0.999921	
4012														-0.143321	-0.037130	9.800110	-0.430235	-0.902658	-0.010310	0.902646	-0.430316	0.007622	-0.011316	-0.006027	0.999918	
4013														-0.046378	0.002524	9.788751	-0.430474	-0.902544	-0.010326	0.902532	-0.430555	0.007627	-0.011330	-0.006036	0.999918	
4014														0.089824	0.079944	9.749508	-0.431205	-0.902194	-0.010357	0.902182	-0.431287	0.007648	-0.011367	-0.006046	0.999917	
4015														-0.211945	-0.143861	9.782779	-0.430943	-0.902318	-0.010544	0.902306	-0.431027	0.007709	-0.011500	-0.006192	0.999915	
4016														-0.140969	-0.009911	9.785737	-0.429380	-0.903061	-0.010617	0.903050	-0.429466	0.007770	-0.011576	-0.006251	0.999913	
4017														-0.255521	-0.061487	9.752495	-0.427407	-0.903997	-0.010586	0.903985	-0.427493	0.007792	-0.011570	-0.006240	0.999914	
4018														-0.093125	0.010698	9.787393	-0.425541	-0.904878	-0.010524	0.904865	-0.425626	0.007848	-0.011581	-0.006184	0.999914	
4019														-0.073732	0.037876	9.788160	-0.423717	-0.905735	-0.010396	0.905720	-0.423801	0.007972	-0.011626	-0.006038	0.999914	
4020														-0.170522	-0.077061	9.755164	-0.422165	-0.906458	-0.010515	0.906444	-0.422251	0.007972	-0.011666	-0.006166	0.999913	
4021														-0.157164	-0.080446	9.770241	-0.420964	-0.907016	-0.010530	0.907002	-0.421050	0.008018	-0.011706	-0.006176	0.999912	
4022														-0.129512	-0.085803	9.800423	-0.419903	-0.907509	-0.010472	0.907494	-0.419988	0.008010	-0.011667	-0.006140	0.999913	
4023														-0.092127	-0.047569	9.801818	-0.419183	-0.907842	-0.010405	0.907828	-0.419267	0.007959	-0.011587	-0.006110	0.999914	
4024														-0.153891	0.010380	9.770784	-0.419087	-0.907889	-0.010216	0.907874	-0.419169	0.007854	-0.011413	-0.005983	0.999917	
4025														-0.138983	0.007778	9.756593	-0.419016	-0.907919	-0.010413	0.907906	-0.419100	0.007900	-0.011537	-0.006143	0.999915	
4026														-0.155235	0.007260	9.785413	-0.419337	-0.907765	-0.010897	0.907757	-0.419426	0.007705	-0.011565	-0.006661	0.999911	
4027														-0.126843	-0.106043	9.756322	-0.419077	-0.907844	-0.013909	0.907880	-0.419187	0.006106	-0.011374	-0.010069	0.999885	
4028														-0.061335	-0.090578	9.787812	-0.418360	-0.908174	-0.013938	0.908210	-0.418470	0.006100	-0.011373	-0.010107	0.999884	
4029														-0.104599	-0.082601	9.786496	-0.418007	-0.908337	-0.013966	0.908373	-0.418117	0.006074	-0.011357	-0.010148	0.999884	
4030														-0.102003	-0.068277	9.786711	-0.417624	-0.908512	-0.013980	0.908549	-0.417735	0.006073	-0.011358	-0.010165	0.999884	
4031														-0.119392	-0.079933	9.786053	-0.417595	-0.908525	-0.014006	0.908562	-0.417706	0.006086	-0.011380	-0.010184	0.999883	
4032														-0.121767	-0.094232	9.771194	-0.417595	-0.908525	-0.014025	0.908562	-0.417706	0.006046	-0.011351	-0.010218	0.999883	
4033														-0.116553	-0.065472	9.771625	-0.417656	-0.908497	-0.014052	0.908534	-0.417767	0.006059	-0.011375	-0.010236	0.999883	
4034														-0.131606	-0.062680	9.785825	-0.417656	-0.908497	-0.014023	0.908534	-0.417766	0.006048	-0.011353	-0.010215	0.999883	
4035														-0.120398	-0.079632	9.800690	-0.417631	-0.908508	-0.014029	0.908546	-0.417741	0.006037	-0.011345	-0.010225	0.999883	
4036														-0.134413	-0.076693	9.785610	-0.417659	-0.908496	-0.014035	0.908533	-0.417769	0.006024	-0.011336	-0.010235	0.999883	
4037														-0.103605	-0.067574	9.801345	-0.417683	-0.908485	-0.014027	0.908522	-0.417793	0.006039	-0.011347	-0.010222	0.999883	
4038														-0.119616	-0.078698	9.756766	-0.417722	-0.908466	-0.014054	0.908504	-0.417833	0.006053	-0.011371	-0.010240	0.999883	
4039														-0.103790	-0.067113	9.786700	-0.417764	-0.908447	-0.014054	0.908484	-0.417875	0.006053	-0.011372	-0.010239	0.999883	
4040														-0.117728	-0.063920	9.771621	-0.417826	-0.908419	-0.014012	0.908456	-0.417937	0.006034	-0.011337	-0.010208	0.999884	
4041														-0.135294	-0.075387	9.785608	-0.417839	-0.908413	-0.014011	0.908450	-0.417949	0.006035	-0.011338	-0.010207	0.999884	
4042														-0.117945	-0.063420	9.771621	-0.417851	-0.908407	-0.014030	0.908445	-0.417961	0.006030	-0.011341	-0.010226	0.999883	
4043														-0.118077	-0.063141	9.771622	-0.417845	-0.908411	-0.013995	0.908448	-0.417955	0.006032	-0.011329	-0.010193	0.999884	
4044														-0.120510	-0.077018	9.756769	-0.417810	-0.908426	-0.014001	0.908463	-0.417920	0.006056	-0.011353	-0.010189	0.999884	
4045														-0.118229	-0.062368	9.756978	-0.417822	-0.908421	-0.014007	0.908458	-0.417932	0.006078	-0.011376	-0.010185	0.999883	
4046														-0.117107	-0.048072	9.801111	-0.417849	-0.908409	-0.013985	0.908446	-0.417959	0.006053	-0.011344	-0.010176	0.999884	
4047														-0.121609	-0.076501	9.771406	-0.417829	-0.908417	-0.014018	0.908455	-0.417940	0.006056	-0.011360	-0.010205	0.999883	
4048														-0.137037	-0.073851	9.800243	-0.417907	-0.908382	-0.013976	0.908419	-0.418017	0.006035	-0.011325	-0.010174	0.999884	
4049														-0.107317	-0.078589	9.771853	-0.417908	-0.908382	-0.013975	0.908419	-0.418018	0.006037	-0.011326	-0.010172	0.999884	
4050														-0.107031	-0.078232	9.757213	-0.417934	-0.908370	-0.013975	0.908407	-0.418044	0.006039	-0.011328	-0.010171	0.999884	
4051														-0.136853	-0.072899	9.785605	-0.417977	-0.908350	-0.013966	0.908387	-0.418086	0.006018	-0.011306	-0.010171	0.999884	
4052														-0.136785	-0.072745	9.785607	-0.417975	-0.908351	-0.013965	0.908389	-0.418084	0.005987	-0.011276	-0.010183	0.999885	
4053														-0.119172	-0.060745	9.771624	-0.417996	-0.908342	-0.013957	0.908379	-0.418105	0.005968	-0.011256	-0.010183	0.999885	
4054														-0.107431	-0.077613	9.771860	-0.418015	-0.908333	-0.013948	0.908371	-0.418124	0.005949	-0.011235	-0.010183	0.999885	
4055														-0.119132	-0.060321	9.771627	-0.418049	-0.908317	-0.013940	0.908355	-0.418158	0.005929	-0.011215	-0.010184	0.999885	
4056														-0.119283	-0.060251	9.771625	-0.418044	-0.908319	-0.013973	0.908357	-0.418153	0.005930	-0.011229	-0.010213	0.999885	
4057														-0.091111	-0.065555	9.787155	-0.418129	-0.908281	-0.013945	0.908318	-0.418237	0.005916	-0.011206	-0.010193	0.999885	
4058														-0.118454	-0.059618	9.742346	-0.418170	-0.908262	-0.013957	0.908300	-0.418278	0.005889	-0.011186	-0.010215	0.999885	
4059														-0.105571	-0.062443	9.786712	-0.418216	-0.908240	-0.013936	0.908279	-0.418324	0.005896	-0.011185	-0.010192	0.999885	
4060														-0.108944	-0.076574	9.801144	-0.418227	-0.908236	-0.013929	0.908273	-0.418335	0.005913	-0.011197	-0.010178	0.999886	
4061														-0.121672	-0.073119	9.742137	-0.418264	-0.908219	-0.013927	0.908257	-0.418372	0.005913	-0.011197	-0.010176	0.999886	
4062														-0.106656	-0.061707	9.801351	-0.418252	-0.908224	-0.013932	0.908262	-0.418360	0.005902	-0.011189	-0.010185	0.999886	
4063														-0.108464	-0.075747	9.771863	-0.418260	-0.908220	-0.013937	0.908258	-0.418368	0.005891	-0.011181	-0.010195	0.999886	
4064														-0.117362	-0.044118	9.757187	-0.418303	-0.908200	-0.013977	0.908238	-0.418411	0.005912	-0.011217	-0.010221	0.999885	
4065														-0.122953	-0.072845	9.756770	-0.418329	-0.908188	-0.013968	0.908226	-0.418438	0.005893	-0.011197	-0.010221	0.999885	
4066														-0.109606	-0.075644	9.786498	-0.418347	-0.908179	-0.013988	0.908218	-0.418456	0.005888	-0.011200	-0.010241	0.999885	
4067														-0.106815	-0.060925	9.772062	-0.418328	-0.908188	-0.013986	0.908227	-0.418437	0.005924	-0.011233	-0.010224	0.999885	
4068														-0.124227	-0.072464	9.771404	-0.418351	-0.908177	-0.014005	0.908216	-0.418460	0.005919	-0.011236	-0.010244	0.999884	
4069														-0.110087	-0.075055	9.771850	-0.418391	-0.908159	-0.014018	0.908197	-0.418501	0.005926	-0.011248	-0.010252	0.999884	
4070														-0.124682	-0.072260	9.771400	-0.418433	-0.908139	-0.014024	0.908178	-0.418542	0.005912	-0.011238	-0.010262	0.999884	
4071														-0.124709	-0.071991	9.771401	-0.418468	-0.908124	-0.013995	0.908162	-0.418577	0.005900	-0.011216	-0.010241	0.999885	
4072														-0.124841	-0.071712	9.771402	-0.418492	-0.908113	-0.014008	0.908151	-0.418601	0.005908	-0.011228	-0.010249	0.999884	
4073														-0.110325	-0.074171	9.757208	-0.418534	-0.908093	-0.014034	0.908132	-0.418643	0.005922	-0.011253	-0.010266	0.999884	
4074														-0.111581	-0.074170	9.786487	-0.418529	-0.908096	-0.014012	0.908134	-0.418638	0.005933	-0.011254	-0.010242	0.999884	
4075														-0.122922	-0.056760	9.771601	-0.418518	-0.908100	-0.014024	0.908139	-0.418627	0.005909	-0.011237	-0.010263	0.999884	
4076														-0.127787	-0.085179	9.756553	-0.418538	-0.908092	-0.013989	0.908130	-0.418647	0.005911	-0.011224	-0.010230	0.999885	
4077														-0.108733	-0.058819	9.772054	-0.418573	-0.908075	-0.014001	0.908114	-0.418682	0.005917	-0.011235	-0.010238	0.999884	
4078														-0.095121	-0.061464	9.787143	-0.418580	-0.908072	-0.014014	0.908110	-0.418689	0.005926	-0.011249	-0.010246	0.999884	
4079														-0.128399	-0.084430	9.756552	-0.418632	-0.908048	-0.013987	0.908086	-0.418741	0.005913	-0.011226	-0.010226	0.999885	
4080														-0.111854	-0.072537	9.771849	-0.418645	-0.908042	-0.013991	0.908081	-0.418753	0.005902	-0.011218	-0.010235	0.999885	
4081														-0.126874	-0.069819	9.786036	-0.418616	-0.908055	-0.013990	0.908094	-0.418725	0.005904	-0.011219	-0.010233	0.999885	
4082														-0.112676	-0.072353	9.786488	-0.418683	-0.908024	-0.014008	0.908063	-0.418792	0.005898	-0.011222	-0.010251	0.999884	
4083														-0.112866	-0.072122	9.786487	-0.418707	-0.908014	-0.013986	0.908052	-0.418816	0.005907	-0.011221	-0.010227	0.999885	
4084														-0.110402	-0.057486	9.786689	-0.418697	-0.908018	-0.014005	0.908057	-0.418806	0.005903	-0.011225	-0.010246	0.999885	
4085														-0.112829	-0.071695	9.771844	-0.418721	-0.908007	-0.014018	0.908045	-0.418830	0.005911	-0.011238	-0.010254	0.999884	
4086														-0.095598	-0.059696	9.757859	-0.418750	-0.907993	-0.014030	0.908032	-0.418859	0.005919	-0.011251	-0.010261	0.999884	
4087														-0.127351	-0.068650	9.756744	-0.418780	-0.907979	-0.014043	0.908018	-0.418890	0.005926	-0.011264	-0.010270	0.999884	
4088														-0.114216	-0.071298	9.786478	-0.418823	-0.907960	-0.014036	0.907998	-0.418932	0.005940	-0.011274	-0.010257	0.999884	
4089														-0.116144	-0.085289	9.756995	-0.418820	-0.907960	-0.014057	0.907999	-0.418930	0.005937	-0.011280	-0.010277	0.999884	
4090														-0.114662	-0.070988	9.786475	-0.418852	-0.907946	-0.014054	0.907984	-0.418962	0.005937	-0.011278	-0.010274	0.999884	
4091														-0.128918	-0.067920	9.771376	-0.418882	-0.907932	-0.014053	0.907970	-0.418992	0.005973	-0.011311	-0.010258	0.999883	
4092														-0.115347	-0.070390	9.786471	-0.418904	-0.907922	-0.014049	0.907960	-0.419014	0.005973	-0.011310	-0.010253	0.999883	
4093														-0.111477	-0.055353	9.742751	-0.418910	-0.907919	-0.014040	0.907957	-0.419020	0.005991	-0.011322	-0.010238	0.999883	
4094														-0.116424	-0.070021	9.801107	-0.418896	-0.907925	-0.014066	0.907963	-0.419007	0.006008	-0.011348	-0.010255	0.999883	
4095														-0.117054	-0.069960	9.815747	-0.418922	-0.907914	-0.014045	0.907952	-0.419032	0.005984	-0.011318	-0.010245	0.999883	
4096														-0.114328	-0.069154	9.727906	-0.418918	-0.907915	-0.014082	0.907953	-0.419029	0.006006	-0.011354	-0.010270	0.999883	
4097														-0.098524	-0.057651	9.757842	-0.418951	-0.907900	-0.014097	0.907938	-0.419061	0.005980	-0.011337	-0.010294	0.999883	
4098														-0.115778	-0.069387	9.757180	-0.419005	-0.907874	-0.014125	0.907913	-0.419116	0.005993	-0.011361	-0.010313	0.999882	
4099														-0.147852	-0.078434	9.770699	-0.419031	-0.907862	-0.014099	0.907901	-0.419142	0.005968	-0.011328	-0.010300	0.999883	
4100														-0.116483	-0.069000	9.771821	-0.419079	-0.907840	-0.014092	0.907879	-0.419190	0.005979	-0.011335	-0.010288	0.999883	
4101														-0.105367	-0.086099	9.786721	-0.419113	-0.907824	-0.014124	0.907863	-0.419224	0.005945	-0.011318	-0.010331	0.999883	
4102														-0.117822	-0.069135	9.801097	-0.419149	-0.907807	-0.014130	0.907846	-0.419260	0.005966	-0.011340	-0.010327	0.999882	
4103														-0.094406	-0.055911	9.596794	-0.419173	-0.907795	-0.014213	0.907835	-0.419285	0.005974	-0.011382	-0.010399	0.999881	
4104														-0.108923	-0.087195	9.845257	-0.419187	-0.907787	-0.014335	0.907827	-0.419301	0.006034	-0.011488	-0.010484	0.999879	
4105														-0.189757	-0.075796	10.091810	-0.419184	-0.907789	-0.014256	0.907829	-0.419297	0.006017	-0.011439	-0.010420	0.999880	
4106														-0.119848	-0.049345	9.464100	-0.419259	-0.907756	-0.014202	0.907795	-0.419371	0.005989	-0.011393	-0.010382	0.999881	
4107														-0.016012	-0.086834	9.716483	-0.419206	-0.907778	-0.014315	0.907818	-0.419320	0.006036	-0.011482	-0.010465	0.999879	
4108														-0.082871	-0.092212	9.890097	-0.419205	-0.907779	-0.014318	0.907819	-0.419319	0.006060	-0.011505	-0.010458	0.999879	
4109														-0.200595	-0.037897	9.681352	-0.419248	-0.907758	-0.014338	0.907799	-0.419362	0.006052	-0.011507	-0.010478	0.999879	
4110														-0.139624	-0.081240	9.844310	-0.419272	-0.907747	-0.014385	0.907787	-0.419387	0.006060	-0.011534	-0.010518	0.999878	
4111														-0.016503	-0.072960	9.760597	-0.419334	-0.907718	-0.014408	0.907759	-0.419449	0.006053	-0.011538	-0.010540	0.999878	
4112														-0.162012	-0.060420	9.711811	-0.419314	-0.907727	-0.014406	0.907768	-0.419429	0.006092	-0.011572	-0.010523	0.999878	
4113														-0.194464	-0.055699	9.798702	-0.419318	-0.907724	-0.014467	0.907765	-0.419434	0.006139	-0.011640	-0.010558	0.999877	
4114														-0.094201	-0.074341	9.801971	-0.419373	-0.907698	-0.014507	0.907739	-0.419490	0.006125	-0.011645	-0.010600	0.999876	
4115														-0.089347	-0.059396	9.728971	-0.419389	-0.907690	-0.014517	0.907732	-0.419507	0.006135	-0.011658	-0.010605	0.999876	
4116														-0.125270	-0.083184	9.771547	-0.419366	-0.907701	-0.014540	0.907742	-0.419483	0.006153	-0.011684	-0.010618	0.999875	
4117														-0.127625	-0.083546	9.830101	-0.419392	-0.907689	-0.014549	0.907730	-0.419510	0.006161	-0.011696	-0.010623	0.999875	
4118														-0.108297	-0.071087	9.757573	-0.419410	-0.907680	-0.014553	0.907722	-0.419528	0.006150	-0.011688	-0.010631	0.999875	
4119														-0.123244	-0.068503	9.771741	-0.419413	-0.907679	-0.014567	0.907721	-0.419530	0.006125	-0.011671	-0.010654	0.999875	
4120														-0.139284	-0.066029	9.815188	-0.419421	-0.907675	-0.014559	0.907717	-0.419539	0.006142	-0.011683	-0.010639	0.999875	
4121														-0.126251	-0.082448	9.771540	-0.419398	-0.907686	-0.014556	0.907727	-0.419516	0.006144	-0.011683	-0.010636	0.999875	
4122														-0.125335	-0.082004	9.742262	-0.419429	-0.907671	-0.014549	0.907713	-0.419547	0.006125	-0.011663	-0.010637	0.999875	
4123														-0.109436	-0.070171	9.772212	-0.419481	-0.907648	-0.014539	0.907689	-0.419599	0.006138	-0.011671	-0.010622	0.999875	
4124														-0.124519	-0.067313	9.786380	-0.419527	-0.907627	-0.014525	0.907668	-0.419644	0.006131	-0.011660	-0.010611	0.999876	
4125														-0.127884	-0.081544	9.800821	-0.419552	-0.907615	-0.014530	0.907656	-0.419669	0.006153	-0.011683	-0.010607	0.999876	
4126														-0.109552	-0.069310	9.757571	-0.419549	-0.907616	-0.014542	0.907658	-0.419667	0.006130	-0.011666	-0.010627	0.999875	
4127														-0.110309	-0.069340	9.772208	-0.419531	-0.907624	-0.014560	0.907665	-0.419649	0.006162	-0.011703	-0.010631	0.999875	
4128														-0.112641	-0.083620	9.757369	-0.419604	-0.907590	-0.014579	0.907632	-0.419721	0.006121	-0.011674	-0.010664	0.999875	
4129														-0.114279	-0.083670	9.801288	-0.419640	-0.907574	-0.014541	0.907615	-0.419758	0.006157	-0.011691	-0.010615	0.999875	
4130														-0.107810	-0.054175	9.757763	-0.419633	-0.907577	-0.014557	0.907619	-0.419751	0.006151	-0.011693	-0.010631	0.999875	
4131														-0.124988	-0.065889	9.757091	-0.419694	-0.907549	-0.014560	0.907590	-0.419812	0.006140	-0.011685	-0.010638	0.999875	
4132														-0.113302	-0.082812	9.757368	-0.419708	-0.907542	-0.014564	0.907584	-0.419826	0.006130	-0.011677	-0.010646	0.999875	
4133														-0.128909	-0.080275	9.786171	-0.419723	-0.907535	-0.014571	0.907577	-0.419841	0.006140	-0.011690	-0.010648	0.999875	
4134														-0.141489	-0.063105	9.800529	-0.419745	-0.907525	-0.014570	0.907566	-0.419863	0.006156	-0.011704	-0.010639	0.999875	
4135														-0.126260	-0.065180	9.771726	-0.419755	-0.907521	-0.014554	0.907562	-0.419873	0.006154	-0.011695	-0.010626	0.999875	
4136														-0.094528	-0.055788	9.758233	-0.419783	-0.907507	-0.014581	0.907549	-0.419901	0.006155	-0.011708	-0.010649	0.999875	
4137														-0.128718	-0.079186	9.756888	-0.419828	-0.907487	-0.014549	0.907529	-0.419945	0.006143	-0.011685	-0.010624	0.999875	
4138														-0.095346	-0.055279	9.772873	-0.419819	-0.907491	-0.014537	0.907532	-0.419937	0.006175	-0.011709	-0.010601	0.999875	
4139														-0.098755	-0.069450	9.787317	-0.419841	-0.907481	-0.014536	0.907522	-0.419959	0.006180	-0.011712	-0.010597	0.999875	
4140														-0.129810	-0.078229	9.771528	-0.419885	-0.907461	-0.014517	0.907502	-0.420002	0.006175	-0.011701	-0.010581	0.999876	
4141														-0.124201	-0.049024	9.757277	-0.419885	-0.907461	-0.014508	0.907502	-0.420003	0.006178	-0.011700	-0.010572	0.999876	
4142														-0.099269	-0.068707	9.787317	-0.419953	-0.907430	-0.014522	0.907470	-0.420071	0.006183	-0.011711	-0.010582	0.999875	
4143														-0.116775	-0.080388	9.801286	-0.419929	-0.907441	-0.014490	0.907482	-0.420046	0.006142	-0.011660	-0.010570	0.999876	
4144														-0.096106	-0.053763	9.772874	-0.419920	-0.907445	-0.014502	0.907486	-0.420037	0.006153	-0.011674	-0.010576	0.999876	
4145														-0.099170	-0.067867	9.772679	-0.419927	-0.907442	-0.014495	0.907482	-0.420044	0.006204	-0.011718	-0.010548	0.999876	
4146														-0.128999	-0.062575	9.786353	-0.419937	-0.907437	-0.014540	0.907477	-0.420056	0.006213	-0.011746	-0.010586	0.999875	
4147														-0.134944	-0.091482	9.800605	-0.419936	-0.907437	-0.014530	0.907478	-0.420054	0.006197	-0.011727	-0.010583	0.999875	
4148														-0.128844	-0.062278	9.771711	-0.419953	-0.907429	-0.014542	0.907470	-0.420071	0.006204	-0.011739	-0.010591	0.999875	
4149														-0.116743	-0.079079	9.757359	-0.419966	-0.907423	-0.014546	0.907464	-0.420084	0.006194	-0.011731	-0.010598	0.999875	
4150														-0.113196	-0.076107	9.772165	-0.419954	-0.907429	-0.014556	0.907469	-0.420072	0.006210	-0.011750	-0.010601	0.999875	
4151														-0.109649	-0.073135	9.786971	-0.419942	-0.907434	-0.014566	0.907475	-0.420061	0.006227	-0.011769	-0.010604	0.999875	
4152														-0.129832	-0.061546	9.771702	-0.420017	-0.907399	-0.014549	0.907440	-0.420136	0.006221	-0.011758	-0.010589	0.999875	
4153														-0.114851	-0.063905	9.757547	-0.420040	-0.907389	-0.014554	0.907430	-0.420158	0.006176	-0.011719	-0.010613	0.999875	
4154														-0.119091	-0.078612	9.801273	-0.420062	-0.907378	-0.014578	0.907419	-0.420180	0.006189	-0.011742	-0.010628	0.999875	
4155														-0.133177	-0.075664	9.786150	-0.420065	-0.907377	-0.014547	0.907418	-0.420183	0.006182	-0.011722	-0.010603	0.999875	
4156														-0.101267	-0.066004	9.772670	-0.420124	-0.907350	-0.014532	0.907391	-0.420242	0.006176	-0.011711	-0.010591	0.999875	
4157														-0.118480	-0.077678	9.771995	-0.420141	-0.907342	-0.014565	0.907383	-0.420259	0.006178	-0.011727	-0.010621	0.999875	
4158														-0.130996	-0.060732	9.786339	-0.420162	-0.907332	-0.014570	0.907373	-0.420281	0.006167	-0.011719	-0.010629	0.999875	
4159														-0.135948	-0.089275	9.771317	-0.420167	-0.907330	-0.014576	0.907371	-0.420285	0.006191	-0.011744	-0.010625	0.999875	
4160														-0.116662	-0.062659	9.772180	-0.420199	-0.907315	-0.014547	0.907356	-0.420317	0.006216	-0.011754	-0.010587	0.999875	
4161														-0.105005	-0.079510	9.772475	-0.420214	-0.907308	-0.014576	0.907349	-0.420332	0.006184	-0.011737	-0.010627	0.999875	
4162														-0.133523	-0.074272	9.756862	-0.420230	-0.907300	-0.014599	0.907341	-0.420349	0.006198	-0.011760	-0.010642	0.999874	
4163														-0.134801	-0.074394	9.786138	-0.420238	-0.907296	-0.014602	0.907338	-0.420357	0.006188	-0.011752	-0.010648	0.999874	
4164														-0.120700	-0.076868	9.786621	-0.420246	-0.907292	-0.014622	0.907334	-0.420365	0.006219	-0.011789	-0.010653	0.999874	
4165														-0.132806	-0.059710	9.786320	-0.420271	-0.907281	-0.014627	0.907322	-0.420390	0.006207	-0.011781	-0.010663	0.999874	
4166														-0.120633	-0.076459	9.771978	-0.420264	-0.907284	-0.014621	0.907325	-0.420383	0.006213	-0.011783	-0.010655	0.999874	
4167														-0.120718	-0.076238	9.771979	-0.420312	-0.907262	-0.014610	0.907303	-0.420431	0.006194	-0.011762	-0.010652	0.999874	
4168														-0.106453	-0.078671	9.772466	-0.420290	-0.907272	-0.014618	0.907314	-0.420409	0.006202	-0.011772	-0.010656	0.999874	
4169														-0.121124	-0.076090	9.771975	-0.420343	-0.907247	-0.014656	0.907289	-0.420463	0.006188	-0.011776	-0.010696	0.999873	
4170														-0.121837	-0.076063	9.786613	-0.420369	-0.907235	-0.014634	0.907277	-0.420488	0.006197	-0.011776	-0.010672	0.999874	
4171														-0.123588	-0.089944	9.757147	-0.420371	-0.907234	-0.014633	0.907276	-0.420490	0.006198	-0.011776	-0.010670	0.999874	
4172														-0.121757	-0.075548	9.771972	-0.420395	-0.907223	-0.014660	0.907265	-0.420514	0.006198	-0.011788	-0.010695	0.999873	
4173														-0.125558	-0.074772	9.771848	-0.420397	-0.907222	-0.014655	0.907264	-0.420516	0.006208	-0.011795	-0.010686	0.999873	
4174														-0.129359	-0.073995	9.771724	-0.420398	-0.907221	-0.014651	0.907263	-0.420518	0.006218	-0.011803	-0.010678	0.999873	
4175														-0.110314	-0.091746	9.757630	-0.420361	-0.907239	-0.014645	0.907280	-0.420481	0.006261	-0.011838	-0.010655	0.999873	
4176														-0.125406	-0.088800	9.771781	-0.420424	-0.907210	-0.014600	0.907251	-0.420543	0.006241	-0.011802	-0.010622	0.999874	
4177														-0.108535	-0.076706	9.772459	-0.420445	-0.907200	-0.014624	0.907241	-0.420564	0.006255	-0.011825	-0.010638	0.999874	
4178														-0.134954	-0.056964	9.771661	-0.420444	-0.907201	-0.014614	0.907242	-0.420563	0.006240	-0.011807	-0.010635	0.999874	
4179														-0.126289	-0.088327	9.786421	-0.420448	-0.907199	-0.014618	0.907240	-0.420568	0.006231	-0.011801	-0.010642	0.999874	
4180														-0.122287	-0.073452	9.742689	-0.420497	-0.907176	-0.014613	0.907217	-0.420616	0.006232	-0.011801	-0.010637	0.999874	
4181														-0.121951	-0.059186	9.801429	-0.420486	-0.907181	-0.014612	0.907222	-0.420606	0.006239	-0.011806	-0.010633	0.999874	
4182														-0.120542	-0.058727	9.757511	-0.420484	-0.907182	-0.014616	0.907223	-0.420604	0.006229	-0.011798	-0.010641	0.999874	
4183														-0.109327	-0.075612	9.772458	-0.420508	-0.907171	-0.014596	0.907212	-0.420627	0.006222	-0.011784	-0.010625	0.999874	
4184														-0.111371	-0.089616	9.757638	-0.420512	-0.907170	-0.014573	0.907211	-0.420631	0.006201	-0.011755	-0.010614	0.999875	
4185														-0.123846	-0.072523	9.771968	-0.420471	-0.907188	-0.014596	0.907229	-0.420590	0.006218	-0.011780	-0.010628	0.999874	
4186														-0.138558	-0.069793	9.771472	-0.420490	-0.907180	-0.014592	0.907221	-0.420609	0.006223	-0.011783	-0.010622	0.999874	
4187														-0.128079	-0.086856	9.801057	-0.420498	-0.907176	-0.014620	0.907216	-0.420618	0.006240	-0.011810	-0.010639	0.999874	
4188														-0.124719	-0.072279	9.771959	-0.420500	-0.907174	-0.014647	0.907216	-0.420619	0.006222	-0.011805	-0.010671	0.999873	
4189														-0.124294	-0.072069	9.757320	-0.420540	-0.907156	-0.014629	0.907197	-0.420659	0.006215	-0.011792	-0.010658	0.999874	
4190														-0.110546	-0.074581	9.772453	-0.420599	-0.907129	-0.014645	0.907170	-0.420718	0.006208	-0.011793	-0.010674	0.999873	
4191														-0.125097	-0.071816	9.771958	-0.420617	-0.907121	-0.014630	0.907162	-0.420736	0.006205	-0.011783	-0.010662	0.999874	
4192														-0.122181	-0.057076	9.757501	-0.420638	-0.907110	-0.014641	0.907152	-0.420758	0.006212	-0.011795	-0.010668	0.999874	
4193														-0.111749	-0.074074	9.787088	-0.420657	-0.907102	-0.014647	0.907143	-0.420777	0.006235	-0.011819	-0.010664	0.999873	
4194														-0.128527	-0.085675	9.771768	-0.420672	-0.907094	-0.014669	0.907136	-0.420792	0.006231	-0.011824	-0.010686	0.999873	
4195														-0.128300	-0.085344	9.757128	-0.420710	-0.907077	-0.014651	0.907118	-0.420830	0.006259	-0.011843	-0.010657	0.999873	
4196														-0.111543	-0.073226	9.757806	-0.420693	-0.907085	-0.014656	0.907126	-0.420813	0.006251	-0.011837	-0.010665	0.999873	
4197														-0.143038	-0.082352	9.756630	-0.420708	-0.907078	-0.014659	0.907119	-0.420828	0.006241	-0.011829	-0.010672	0.999873	
4198														-0.096847	-0.075430	9.743664	-0.420682	-0.907090	-0.014654	0.907131	-0.420802	0.006248	-0.011834	-0.010665	0.999873	
4199														-0.129944	-0.084668	9.786405	-0.420678	-0.907092	-0.014637	0.907133	-0.420798	0.006245	-0.011824	-0.010651	0.999873	
4200														-0.127553	-0.070017	9.786585	-0.420671	-0.907095	-0.014647	0.907136	-0.420791	0.006256	-0.011838	-0.010655	0.999873	
4201														-0.110402	-0.058006	9.772622	-0.420696	-0.907083	-0.014670	0.907124	-0.420816	0.006273	-0.011863	-0.010668	0.999873	
4202														-0.130789	-0.084109	9.786399	-0.420696	-0.907084	-0.014649	0.907124	-0.420816	0.006286	-0.011866	-0.010644	0.999873	
4203														-0.130350	-0.083798	9.771761	-0.420702	-0.907081	-0.014659	0.907122	-0.420822	0.006263	-0.011850	-0.010663	0.999873	
4204														-0.129977	-0.083641	9.757120	-0.420704	-0.907080	-0.014670	0.907121	-0.420824	0.006274	-0.011865	-0.010668	0.999873	
4205														-0.113760	-0.071710	9.772437	-0.420725	-0.907070	-0.014663	0.907111	-0.420845	0.006277	-0.011864	-0.010660	0.999873	
4206														-0.110896	-0.056914	9.757977	-0.420730	-0.907068	-0.014656	0.907108	-0.420850	0.006293	-0.011876	-0.010647	0.999873	
4207														-0.113653	-0.070997	9.757798	-0.420775	-0.907047	-0.014641	0.907088	-0.420895	0.006288	-0.011866	-0.010635	0.999873	
4208														-0.131983	-0.082771	9.786394	-0.420753	-0.907057	-0.014660	0.907097	-0.420874	0.006319	-0.011901	-0.010639	0.999873	
4209														-0.127071	-0.053643	9.786750	-0.420769	-0.907050	-0.014629	0.907090	-0.420889	0.006307	-0.011878	-0.010616	0.999873	
4210														-0.129614	-0.067744	9.786574	-0.420741	-0.907063	-0.014616	0.907103	-0.420861	0.006292	-0.011859	-0.010611	0.999873	
4211														-0.114333	-0.069813	9.757799	-0.420781	-0.907045	-0.014601	0.907084	-0.420901	0.006324	-0.011882	-0.010583	0.999873	
4212														-0.117774	-0.084022	9.772259	-0.420810	-0.907031	-0.014612	0.907071	-0.420930	0.006332	-0.011894	-0.010589	0.999873	
4213														-0.112886	-0.055104	9.772610	-0.420845	-0.907015	-0.014630	0.907055	-0.420966	0.006326	-0.011896	-0.010608	0.999873	
4214														-0.132217	-0.081147	9.757111	-0.420829	-0.907022	-0.014631	0.907062	-0.420950	0.006351	-0.011920	-0.010598	0.999873	
4215														-0.117120	-0.069422	9.801705	-0.420838	-0.907018	-0.014649	0.907058	-0.420959	0.006346	-0.011923	-0.010617	0.999873	
4216														-0.133188	-0.080924	9.771746	-0.420879	-0.906999	-0.014630	0.907039	-0.421000	0.006342	-0.011912	-0.010601	0.999873	
4217														-0.132793	-0.080561	9.757108	-0.420881	-0.906998	-0.014626	0.907038	-0.421001	0.006345	-0.011913	-0.010595	0.999873	
4218														-0.117595	-0.068841	9.801704	-0.420886	-0.906995	-0.014645	0.907035	-0.421007	0.006343	-0.011918	-0.010614	0.999873	
4219														-0.119143	-0.082928	9.772251	-0.420933	-0.906974	-0.014622	0.907014	-0.421053	0.006315	-0.011885	-0.010604	0.999873	
4220														-0.102248	-0.070857	9.772933	-0.420927	-0.906977	-0.014633	0.907017	-0.421047	0.006326	-0.011899	-0.010610	0.999873	
4221														-0.119897	-0.082616	9.786891	-0.420955	-0.906963	-0.014624	0.907004	-0.421076	0.006310	-0.011880	-0.010608	0.999873	
4222														-0.134289	-0.079833	9.786387	-0.420939	-0.906971	-0.014612	0.907011	-0.421059	0.006295	-0.011862	-0.010604	0.999873	
4223														-0.145211	-0.062398	9.756779	-0.421018	-0.906935	-0.014601	0.906975	-0.421138	0.006308	-0.011870	-0.010587	0.999874	
4224														-0.133969	-0.079147	9.771750	-0.421022	-0.906933	-0.014579	0.906973	-0.421141	0.006287	-0.011842	-0.010576	0.999874	
4225														-0.116489	-0.066942	9.757793	-0.420973	-0.906956	-0.014575	0.906996	-0.421093	0.006292	-0.011844	-0.010571	0.999874	
4226														-0.102909	-0.069455	9.772936	-0.421025	-0.906931	-0.014604	0.906971	-0.421145	0.006306	-0.011869	-0.010590	0.999873	
4227														-0.103213	-0.069319	9.772934	-0.421017	-0.906935	-0.014600	0.906975	-0.421137	0.006310	-0.011871	-0.010585	0.999874	
4228														-0.120850	-0.080976	9.786893	-0.421031	-0.906929	-0.014582	0.906969	-0.421151	0.006308	-0.011862	-0.010570	0.999874	
4229														-0.103420	-0.068710	9.772936	-0.421027	-0.906931	-0.014563	0.906971	-0.421146	0.006303	-0.011849	-0.010554	0.999874	
4230														-0.117330	-0.065794	9.757791	-0.421049	-0.906921	-0.014550	0.906961	-0.421168	0.006286	-0.011829	-0.010550	0.999874	
4231														-0.131780	-0.063064	9.757284	-0.421036	-0.906927	-0.014553	0.906967	-0.421155	0.006275	-0.011820	-0.010557	0.999874	
4232														-0.149472	-0.074772	9.771242	-0.421064	-0.906914	-0.014543	0.906954	-0.421183	0.006291	-0.011830	-0.010541	0.999874	
4233														-0.117158	-0.065038	9.743153	-0.421080	-0.906907	-0.014530	0.906946	-0.421199	0.006274	-0.011810	-0.010536	0.999875	
4234														-0.120871	-0.079503	9.772259	-0.421113	-0.906892	-0.014544	0.906931	-0.421232	0.006269	-0.011811	-0.010551	0.999875	
4235														-0.121175	-0.079369	9.772256	-0.421159	-0.906870	-0.014546	0.906909	-0.421279	0.006291	-0.011833	-0.010542	0.999874	
4236														-0.121364	-0.079138	9.772255	-0.421149	-0.906875	-0.014534	0.906915	-0.421268	0.006276	-0.011814	-0.010538	0.999875	
4237														-0.121448	-0.078915	9.772256	-0.421139	-0.906880	-0.014527	0.906919	-0.421258	0.006281	-0.011816	-0.010530	0.999875	
4238														-0.121171	-0.078758	9.757615	-0.421132	-0.906882	-0.014558	0.906922	-0.421251	0.006287	-0.011834	-0.010555	0.999874	
4239														-0.124504	-0.093077	9.772082	-0.421176	-0.906863	-0.014535	0.906902	-0.421295	0.006294	-0.011831	-0.010531	0.999875	
4240														-0.122834	-0.078539	9.786888	-0.421153	-0.906872	-0.014578	0.906912	-0.421273	0.006319	-0.011872	-0.010559	0.999874	
4241														-0.122023	-0.078305	9.757608	-0.421182	-0.906859	-0.014572	0.906898	-0.421302	0.006300	-0.011853	-0.010562	0.999874	
4242														-0.108227	-0.080719	9.772759	-0.421216	-0.906843	-0.014570	0.906883	-0.421335	0.006304	-0.011855	-0.010558	0.999874	
4243														-0.106369	-0.066408	9.787565	-0.421226	-0.906838	-0.014614	0.906879	-0.421345	0.006277	-0.011850	-0.010609	0.999874	
4244														-0.122961	-0.078234	9.772243	-0.421232	-0.906835	-0.014608	0.906875	-0.421352	0.006280	-0.011850	-0.010602	0.999874	
4245														-0.120599	-0.063578	9.772411	-0.421237	-0.906833	-0.014604	0.906873	-0.421357	0.006283	-0.011851	-0.010597	0.999874	
4246														-0.120207	-0.063327	9.757772	-0.421270	-0.906818	-0.014605	0.906858	-0.421390	0.006273	-0.011843	-0.010602	0.999874	
4247														-0.134831	-0.060754	9.757257	-0.421269	-0.906818	-0.014637	0.906858	-0.421389	0.006278	-0.011861	-0.010629	0.999873	
4248														-0.111944	-0.094753	9.772580	-0.421225	-0.906838	-0.014648	0.906879	-0.421345	0.006289	-0.011875	-0.010635	0.999873	
4249														-0.139543	-0.075195	9.800997	-0.421261	-0.906821	-0.014643	0.906861	-0.421382	0.006292	-0.011876	-0.010629	0.999873	
4250														-0.124238	-0.077258	9.772234	-0.421277	-0.906814	-0.014618	0.906854	-0.421397	0.006304	-0.011876	-0.010601	0.999873	
4251														-0.123738	-0.077017	9.757597	-0.421283	-0.906811	-0.014634	0.906852	-0.421403	0.006267	-0.011850	-0.010631	0.999873	
4252														-0.124377	-0.077081	9.772234	-0.421291	-0.906807	-0.014643	0.906848	-0.421411	0.006276	-0.011862	-0.010635	0.999873	
4253														-0.110753	-0.079628	9.787385	-0.421325	-0.906791	-0.014664	0.906832	-0.421446	0.006270	-0.011865	-0.010656	0.999873	
4254														-0.109935	-0.079397	9.758106	-0.421322	-0.906792	-0.014675	0.906833	-0.421443	0.006280	-0.011879	-0.010662	0.999873	
4255														-0.138081	-0.059920	9.801156	-0.421301	-0.906802	-0.014673	0.906843	-0.421422	0.006286	-0.011883	-0.010658	0.999873	
4256														-0.125266	-0.076462	9.772228	-0.421366	-0.906772	-0.014655	0.906813	-0.421486	0.006279	-0.011871	-0.010644	0.999873	
4257														-0.125198	-0.076308	9.772230	-0.421378	-0.906767	-0.014659	0.906808	-0.421498	0.006235	-0.011833	-0.010666	0.999873	
4258														-0.125185	-0.076199	9.772231	-0.421338	-0.906785	-0.014656	0.906826	-0.421458	0.006239	-0.011835	-0.010662	0.999873	
4259														-0.124836	-0.075893	9.757592	-0.421367	-0.906772	-0.014654	0.906813	-0.421487	0.006244	-0.011838	-0.010657	0.999873	
4260														-0.122919	-0.061320	9.772397	-0.421368	-0.906772	-0.014643	0.906813	-0.421487	0.006227	-0.011818	-0.010655	0.999873	
4261														-0.139365	-0.072859	9.757077	-0.421366	-0.906772	-0.014627	0.906814	-0.421486	0.006226	-0.011811	-0.010641	0.999874	
4262														-0.111259	-0.077788	9.772749	-0.421422	-0.906746	-0.014637	0.906787	-0.421542	0.006232	-0.011820	-0.010646	0.999873	
4263														-0.107564	-0.048947	9.802354	-0.421437	-0.906739	-0.014646	0.906780	-0.421557	0.006242	-0.011834	-0.010650	0.999873	
4264														-0.157964	-0.084200	9.785668	-0.421414	-0.906751	-0.014602	0.906792	-0.421533	0.006229	-0.011803	-0.010616	0.999874	
4265														-0.109772	-0.062692	9.787552	-0.421452	-0.906733	-0.014627	0.906774	-0.421571	0.006245	-0.011829	-0.010631	0.999874	
4266														-0.121428	-0.045622	9.772556	-0.421442	-0.906737	-0.014642	0.906778	-0.421562	0.006240	-0.011831	-0.010647	0.999873	
4267														-0.125939	-0.074189	9.757591	-0.421457	-0.906731	-0.014604	0.906772	-0.421576	0.006211	-0.011788	-0.010624	0.999874	
4268														-0.143457	-0.085880	9.771548	-0.421436	-0.906740	-0.014613	0.906781	-0.421555	0.006222	-0.011802	-0.010629	0.999874	
4269														-0.095335	-0.064513	9.773431	-0.421465	-0.906727	-0.014618	0.906768	-0.421584	0.006210	-0.011794	-0.010638	0.999874	
4270														-0.126314	-0.073725	9.757589	-0.421465	-0.906727	-0.014635	0.906768	-0.421584	0.006208	-0.011799	-0.010654	0.999874	
4271														-0.126996	-0.073623	9.772227	-0.421478	-0.906721	-0.014616	0.906762	-0.421597	0.006206	-0.011789	-0.010638	0.999874	
4272														-0.130169	-0.088109	9.786701	-0.421420	-0.906747	-0.014659	0.906789	-0.421540	0.006185	-0.011788	-0.010687	0.999873	
4273														-0.142217	-0.071184	9.786342	-0.421502	-0.906709	-0.014658	0.906751	-0.421622	0.006187	-0.011790	-0.010684	0.999873	
4274														-0.112481	-0.075776	9.758106	-0.421493	-0.906714	-0.014632	0.906755	-0.421612	0.006197	-0.011788	-0.010655	0.999874	
4275														-0.113636	-0.075588	9.787384	-0.421497	-0.906712	-0.014621	0.906753	-0.421616	0.006179	-0.011767	-0.010653	0.999874	
4276														-0.113131	-0.075351	9.772746	-0.421519	-0.906702	-0.014624	0.906743	-0.421638	0.006168	-0.011759	-0.010661	0.999874	
4277														-0.127150	-0.072576	9.757587	-0.421532	-0.906696	-0.014621	0.906737	-0.421650	0.006172	-0.011761	-0.010656	0.999874	
4278														-0.112873	-0.074934	9.758108	-0.421565	-0.906680	-0.014626	0.906722	-0.421684	0.006160	-0.011753	-0.010665	0.999874	
4279														-0.125496	-0.057813	9.772386	-0.421551	-0.906687	-0.014615	0.906728	-0.421670	0.006179	-0.011765	-0.010647	0.999874	
4280														-0.113567	-0.074444	9.758103	-0.421572	-0.906677	-0.014639	0.906718	-0.421692	0.006231	-0.011823	-0.010647	0.999873	
4281														-0.128870	-0.071685	9.772217	-0.421548	-0.906688	-0.014610	0.906729	-0.421668	0.006221	-0.011801	-0.010625	0.999874	
4282														-0.117498	-0.088498	9.787219	-0.421615	-0.906657	-0.014619	0.906698	-0.421734	0.006197	-0.011784	-0.010642	0.999874	
4283														-0.143363	-0.068829	9.771695	-0.421591	-0.906668	-0.014616	0.906709	-0.421710	0.006201	-0.011786	-0.010638	0.999874	
4284														-0.114075	-0.073699	9.758103	-0.421620	-0.906655	-0.014623	0.906696	-0.421739	0.006176	-0.011767	-0.010655	0.999874	
4285														-0.111588	-0.059105	9.758264	-0.421612	-0.906659	-0.014606	0.906700	-0.421731	0.006174	-0.011758	-0.010640	0.999874	
4286														-0.113718	-0.073397	9.743464	-0.421624	-0.906652	-0.014642	0.906694	-0.421743	0.006164	-0.011764	-0.010677	0.999874	
4287														-0.115995	-0.073656	9.802016	-0.421662	-0.906635	-0.014630	0.906677	-0.421781	0.006147	-0.011744	-0.010673	0.999874	
4288														-0.115708	-0.073511	9.787375	-0.421654	-0.906638	-0.014671	0.906680	-0.421774	0.006170	-0.011782	-0.010701	0.999873	
4289														-0.131825	-0.085308	9.757411	-0.421695	-0.906619	-0.014680	0.906661	-0.421814	0.006145	-0.011764	-0.010718	0.999873	
4290														-0.115189	-0.073268	9.758093	-0.421714	-0.906610	-0.014689	0.906652	-0.421834	0.006188	-0.011807	-0.010709	0.999873	
4291														-0.131090	-0.070525	9.786842	-0.421759	-0.906589	-0.014666	0.906631	-0.421878	0.006198	-0.011806	-0.010683	0.999873	
4292														-0.130782	-0.070170	9.772202	-0.421752	-0.906592	-0.014676	0.906634	-0.421872	0.006209	-0.011820	-0.010687	0.999873	
4293														-0.116618	-0.072614	9.772726	-0.421750	-0.906593	-0.014692	0.906635	-0.421870	0.006207	-0.011825	-0.010703	0.999873	
4294														-0.104472	-0.089364	9.758453	-0.421771	-0.906583	-0.014695	0.906625	-0.421892	0.006230	-0.011848	-0.010695	0.999873	
4295														-0.114710	-0.057915	9.772880	-0.421817	-0.906562	-0.014712	0.906604	-0.421937	0.006226	-0.011851	-0.010711	0.999872	
4296														-0.131347	-0.069577	9.757553	-0.421859	-0.906542	-0.014702	0.906584	-0.421980	0.006241	-0.011862	-0.010696	0.999872	
4297														-0.102319	-0.074464	9.743968	-0.421861	-0.906540	-0.014746	0.906582	-0.421983	0.006251	-0.011890	-0.010731	0.999872	
4298														-0.133117	-0.069592	9.786821	-0.421859	-0.906542	-0.014742	0.906584	-0.421980	0.006255	-0.011892	-0.010726	0.999872	
4299														-0.135214	-0.083677	9.772025	-0.421859	-0.906542	-0.014725	0.906584	-0.421980	0.006253	-0.011882	-0.010711	0.999872	
4300														-0.121966	-0.085997	9.801832	-0.421854	-0.906545	-0.014707	0.906586	-0.421975	0.006252	-0.011874	-0.010696	0.999872	
4301														-0.117995	-0.071142	9.758075	-0.421853	-0.906545	-0.014716	0.906586	-0.421974	0.006262	-0.011887	-0.010700	0.999872	
4302														-0.133107	-0.068515	9.772183	-0.421843	-0.906550	-0.014705	0.906591	-0.421964	0.006248	-0.011869	-0.010696	0.999872	
4303														-0.118230	-0.070850	9.758075	-0.421833	-0.906554	-0.014722	0.906596	-0.421954	0.006245	-0.011874	-0.010713	0.999872	
4304														-0.119584	-0.070899	9.787348	-0.421828	-0.906556	-0.014732	0.906598	-0.421949	0.006256	-0.011887	-0.010717	0.999872	
4305														-0.119621	-0.070734	9.787349	-0.421863	-0.906540	-0.014711	0.906582	-0.421983	0.006219	-0.011846	-0.010713	0.999872	
4306														-0.121655	-0.084773	9.772556	-0.421827	-0.906557	-0.014694	0.906599	-0.421947	0.006251	-0.011867	-0.010684	0.999873	
4307														-0.103795	-0.072287	9.743969	-0.421875	-0.906536	-0.014661	0.906577	-0.421995	0.006241	-0.011844	-0.010659	0.999873	
4308														-0.119394	-0.069574	9.772715	-0.421887	-0.906530	-0.014656	0.906571	-0.422007	0.006245	-0.011846	-0.010652	0.999873	
4309														-0.133398	-0.066722	9.757545	-0.421903	-0.906523	-0.014639	0.906564	-0.422023	0.006242	-0.011837	-0.010638	0.999873	
4310														-0.133976	-0.066514	9.772185	-0.421893	-0.906528	-0.014630	0.906569	-0.422012	0.006226	-0.011818	-0.010637	0.999874	
4311														-0.104675	-0.071355	9.758611	-0.421877	-0.906535	-0.014648	0.906576	-0.421997	0.006224	-0.011823	-0.010654	0.999873	
4312														-0.105358	-0.071136	9.773249	-0.421900	-0.906525	-0.014611	0.906566	-0.422019	0.006228	-0.011812	-0.010619	0.999874	
4313														-0.120578	-0.068505	9.787353	-0.421909	-0.906520	-0.014655	0.906561	-0.422029	0.006238	-0.011839	-0.010654	0.999873	
4314														-0.105909	-0.070817	9.773246	-0.421944	-0.906504	-0.014632	0.906545	-0.422064	0.006247	-0.011838	-0.010629	0.999873	
4315														-0.123672	-0.082456	9.787196	-0.421941	-0.906505	-0.014634	0.906546	-0.422061	0.006271	-0.011861	-0.010620	0.999873	
4316														-0.123470	-0.082203	9.772555	-0.421934	-0.906508	-0.014645	0.906549	-0.422055	0.006282	-0.011875	-0.010626	0.999873	
4317														-0.107249	-0.070265	9.787879	-0.421947	-0.906502	-0.014651	0.906543	-0.422068	0.006257	-0.011856	-0.010641	0.999873	
4318														-0.137630	-0.079396	9.757381	-0.421956	-0.906498	-0.014640	0.906538	-0.422077	0.006275	-0.011868	-0.010624	0.999873	
4319														-0.124055	-0.081720	9.772552	-0.421976	-0.906489	-0.014650	0.906529	-0.422096	0.006285	-0.011881	-0.010629	0.999873	
4320														-0.119150	-0.052737	9.772856	-0.421957	-0.906497	-0.014646	0.906538	-0.422077	0.006256	-0.011853	-0.010638	0.999873	
4321														-0.123983	-0.081560	9.772554	-0.421987	-0.906484	-0.014647	0.906525	-0.422107	0.006211	-0.011813	-0.010657	0.999873	
4322														-0.121465	-0.066915	9.772708	-0.422015	-0.906471	-0.014623	0.906512	-0.422135	0.006221	-0.011812	-0.010630	0.999874	
4323														-0.136679	-0.064183	9.786809	-0.422006	-0.906475	-0.014632	0.906516	-0.422125	0.006231	-0.011825	-0.010635	0.999874	
4324														-0.136477	-0.063933	9.772167	-0.422037	-0.906461	-0.014635	0.906501	-0.422157	0.006254	-0.011847	-0.010627	0.999873	
4325														-0.111032	-0.083231	9.787724	-0.422065	-0.906447	-0.014646	0.906488	-0.422185	0.006263	-0.011860	-0.010633	0.999873	
4326														-0.121494	-0.066001	9.743423	-0.422074	-0.906443	-0.014649	0.906484	-0.422194	0.006252	-0.011852	-0.010640	0.999873	
4327														-0.107663	-0.068391	9.758599	-0.422119	-0.906422	-0.014639	0.906463	-0.422238	0.006234	-0.011832	-0.010638	0.999873	
4328														-0.096985	-0.085262	9.788262	-0.422128	-0.906418	-0.014647	0.906459	-0.422248	0.006244	-0.011844	-0.010641	0.999873	
4329														-0.122475	-0.065538	9.758059	-0.422169	-0.906399	-0.014642	0.906440	-0.422289	0.006247	-0.011845	-0.010634	0.999873	
4330														-0.123768	-0.065313	9.787335	-0.422176	-0.906396	-0.014616	0.906437	-0.422296	0.006257	-0.011843	-0.010607	0.999874	
4331														-0.122835	-0.064865	9.758059	-0.422181	-0.906394	-0.014610	0.906434	-0.422300	0.006260	-0.011844	-0.010600	0.999874	
4332														-0.112166	-0.081836	9.787723	-0.422203	-0.906383	-0.014632	0.906424	-0.422323	0.006244	-0.011839	-0.010627	0.999873	
4333														-0.111057	-0.078084	9.773123	-0.422199	-0.906385	-0.014626	0.906426	-0.422318	0.006237	-0.011830	-0.010624	0.999874	
4334														-0.109948	-0.074332	9.758522	-0.422195	-0.906387	-0.014620	0.906428	-0.422314	0.006230	-0.011821	-0.010621	0.999874	
4335														-0.127814	-0.078956	9.816462	-0.422208	-0.906381	-0.014597	0.906422	-0.422327	0.006198	-0.011783	-0.010614	0.999874	
4336														-0.112311	-0.081173	9.787727	-0.422172	-0.906398	-0.014602	0.906439	-0.422291	0.006210	-0.011795	-0.010615	0.999874	
4337														-0.112000	-0.080934	9.773088	-0.422207	-0.906382	-0.014600	0.906423	-0.422326	0.006213	-0.011797	-0.010610	0.999874	
4338														-0.112737	-0.080651	9.787727	-0.422196	-0.906387	-0.014574	0.906428	-0.422315	0.006224	-0.011796	-0.010583	0.999874	
4339														-0.140660	-0.075332	9.757370	-0.422195	-0.906388	-0.014591	0.906428	-0.422314	0.006220	-0.011800	-0.010599	0.999874	
4340														-0.127597	-0.077745	9.787184	-0.422205	-0.906383	-0.014582	0.906424	-0.422324	0.006238	-0.011812	-0.010584	0.999874	
4341														-0.125246	-0.063030	9.787331	-0.422209	-0.906381	-0.014570	0.906422	-0.422328	0.006221	-0.011792	-0.010580	0.999874	
4342														-0.109779	-0.065085	9.758598	-0.422225	-0.906375	-0.014544	0.906415	-0.422343	0.006233	-0.011792	-0.010551	0.999875	
4343														-0.126764	-0.076707	9.757912	-0.422209	-0.906382	-0.014532	0.906422	-0.422328	0.006219	-0.011774	-0.010546	0.999875	
4344														-0.127349	-0.076489	9.772552	-0.422198	-0.906388	-0.014514	0.906427	-0.422316	0.006218	-0.011765	-0.010531	0.999875	
4345														-0.112488	-0.078539	9.758458	-0.422197	-0.906388	-0.014492	0.906428	-0.422315	0.006230	-0.011767	-0.010506	0.999876	
4346														-0.115603	-0.092699	9.772953	-0.422213	-0.906381	-0.014482	0.906421	-0.422330	0.006213	-0.011748	-0.010503	0.999876	
4347														-0.110832	-0.063595	9.773241	-0.422217	-0.906379	-0.014486	0.906419	-0.422335	0.006238	-0.011772	-0.010496	0.999876	
4348														-0.113616	-0.077897	9.773094	-0.422239	-0.906368	-0.014504	0.906408	-0.422357	0.006234	-0.011776	-0.010515	0.999875	
4349														-0.125154	-0.060858	9.758056	-0.422232	-0.906372	-0.014508	0.906411	-0.422351	0.006224	-0.011768	-0.010522	0.999875	
4350														-0.099433	-0.080191	9.773636	-0.422265	-0.906356	-0.014511	0.906396	-0.422383	0.006212	-0.011760	-0.010529	0.999875	
4351														-0.130962	-0.089539	9.772404	-0.422294	-0.906343	-0.014521	0.906382	-0.422412	0.006221	-0.011772	-0.010534	0.999875	
4352														-0.143669	-0.072544	9.786639	-0.422277	-0.906350	-0.014523	0.906390	-0.422395	0.006211	-0.011764	-0.010540	0.999875	
4353														-0.128832	-0.074906	9.772545	-0.422314	-0.906333	-0.014539	0.906373	-0.422432	0.006206	-0.011766	-0.010557	0.999875	
4354														-0.115717	-0.077252	9.802364	-0.422326	-0.906328	-0.014515	0.906367	-0.422445	0.006217	-0.011767	-0.010531	0.999875	
4355														-0.114775	-0.076818	9.773089	-0.422325	-0.906328	-0.014512	0.906368	-0.422443	0.006221	-0.011769	-0.010525	0.999875	
4356														-0.115078	-0.076682	9.773087	-0.422317	-0.906332	-0.014534	0.906372	-0.422435	0.006238	-0.011794	-0.010539	0.999875	
4357														-0.127269	-0.059479	9.772682	-0.422356	-0.906314	-0.014495	0.906354	-0.422474	0.006241	-0.011781	-0.010502	0.999875	
4358														-0.100392	-0.078389	9.758997	-0.422350	-0.906317	-0.014478	0.906357	-0.422468	0.006239	-0.011771	-0.010487	0.999876	
4359														-0.128547	-0.058918	9.801959	-0.422357	-0.906314	-0.014480	0.906353	-0.422475	0.006230	-0.011764	-0.010493	0.999876	
4360														-0.116018	-0.075677	9.787728	-0.422397	-0.906296	-0.014477	0.906335	-0.422514	0.006199	-0.011734	-0.010502	0.999876	
4361														-0.115491	-0.075464	9.773091	-0.422349	-0.906318	-0.014473	0.906357	-0.422467	0.006204	-0.011737	-0.010497	0.999876	
4362														-0.118150	-0.089671	9.772950	-0.422432	-0.906279	-0.014471	0.906319	-0.422549	0.006206	-0.011739	-0.010494	0.999876	
4363														-0.113468	-0.060718	9.773229	-0.422405	-0.906291	-0.014501	0.906331	-0.422523	0.006209	-0.011754	-0.010520	0.999876	
4364														-0.116755	-0.075122	9.787723	-0.422427	-0.906281	-0.014497	0.906321	-0.422545	0.006213	-0.011756	-0.010514	0.999876	
4365														-0.103081	-0.077408	9.802909	-0.422426	-0.906281	-0.014493	0.906321	-0.422544	0.006218	-0.011759	-0.010508	0.999876	
4366														-0.129040	-0.057703	9.787315	-0.422439	-0.906276	-0.014475	0.906315	-0.422556	0.006215	-0.011749	-0.010494	0.999876	
4367														-0.119065	-0.088783	9.772947	-0.422464	-0.906264	-0.014478	0.906304	-0.422581	0.006203	-0.011740	-0.010501	0.999876	
4368														-0.116127	-0.074180	9.758449	-0.422444	-0.906273	-0.014480	0.906313	-0.422562	0.006193	-0.011731	-0.010507	0.999876	
4369														-0.131251	-0.071477	9.772538	-0.422443	-0.906274	-0.014458	0.906314	-0.422560	0.006206	-0.011733	-0.010482	0.999876	
4370														-0.104483	-0.090577	9.758860	-0.422460	-0.906266	-0.014473	0.906306	-0.422577	0.006202	-0.011736	-0.010497	0.999876	
4371														-0.118333	-0.073570	9.802361	-0.422468	-0.906263	-0.014449	0.906302	-0.422585	0.006214	-0.011737	-0.010470	0.999876	
4372														-0.132387	-0.070829	9.787173	-0.422466	-0.906263	-0.014466	0.906303	-0.422583	0.006211	-0.011742	-0.010487	0.999876	
4373														-0.118165	-0.073273	9.787721	-0.422451	-0.906270	-0.014482	0.906310	-0.422569	0.006207	-0.011745	-0.010503	0.999876	
4374														-0.120258	-0.087542	9.772944	-0.422470	-0.906261	-0.014478	0.906301	-0.422587	0.006211	-0.011747	-0.010497	0.999876	
4375														-0.130474	-0.056069	9.787305	-0.422499	-0.906248	-0.014479	0.906287	-0.422617	0.006201	-0.011739	-0.010503	0.999876	
4376														-0.118704	-0.072845	9.787717	-0.422463	-0.906264	-0.014489	0.906304	-0.422581	0.006211	-0.011752	-0.010507	0.999876	
4377														-0.115933	-0.058283	9.773215	-0.422469	-0.906261	-0.014504	0.906301	-0.422587	0.006208	-0.011756	-0.010522	0.999876	
4378														-0.118477	-0.072502	9.773078	-0.422508	-0.906243	-0.014474	0.906283	-0.422626	0.006199	-0.011735	-0.010499	0.999876	
4379														-0.133511	-0.069918	9.787164	-0.422511	-0.906242	-0.014497	0.906282	-0.422629	0.006182	-0.011729	-0.010526	0.999876	
4380														-0.104283	-0.074672	9.773630	-0.422482	-0.906256	-0.014486	0.906295	-0.422599	0.006202	-0.011742	-0.010508	0.999876	
4381														-0.118392	-0.071987	9.758438	-0.422514	-0.906240	-0.014504	0.906280	-0.422632	0.006198	-0.011747	-0.010526	0.999876	
4382														-0.119159	-0.071903	9.773074	-0.422518	-0.906238	-0.014499	0.906278	-0.422636	0.006201	-0.011748	-0.010520	0.999876	
4383														-0.121188	-0.086128	9.758300	-0.422557	-0.906220	-0.014503	0.906260	-0.422675	0.006190	-0.011740	-0.010528	0.999876	
4384														-0.120062	-0.071541	9.787710	-0.422606	-0.906197	-0.014493	0.906237	-0.422724	0.006208	-0.011752	-0.010511	0.999876	
4385														-0.134731	-0.068795	9.787155	-0.422592	-0.906204	-0.014491	0.906244	-0.422710	0.006212	-0.011755	-0.010507	0.999876	
4386														-0.121806	-0.085382	9.758299	-0.422590	-0.906205	-0.014488	0.906245	-0.422708	0.006216	-0.011757	-0.010503	0.999876	
4387														-0.122620	-0.085238	9.772935	-0.422586	-0.906207	-0.014497	0.906246	-0.422704	0.006227	-0.011770	-0.010507	0.999876	
4388														-0.118009	-0.056116	9.773202	-0.422604	-0.906199	-0.014487	0.906238	-0.422722	0.006244	-0.011782	-0.010490	0.999876	
4389														-0.152534	-0.079896	9.786459	-0.422587	-0.906207	-0.014490	0.906246	-0.422705	0.006235	-0.011775	-0.010497	0.999876	
4390														-0.117771	-0.055671	9.758563	-0.422607	-0.906197	-0.014486	0.906236	-0.422725	0.006238	-0.011777	-0.010491	0.999876	
4391														-0.108431	-0.086776	9.758851	-0.422601	-0.906200	-0.014482	0.906239	-0.422719	0.006243	-0.011779	-0.010486	0.999876	
4392														-0.121115	-0.069641	9.773066	-0.422636	-0.906184	-0.014465	0.906223	-0.422753	0.006240	-0.011769	-0.010471	0.999876	
4393														-0.120676	-0.069323	9.758430	-0.422599	-0.906201	-0.014461	0.906240	-0.422717	0.006243	-0.011771	-0.010466	0.999876	
4394														-0.124456	-0.083608	9.787571	-0.422642	-0.906182	-0.014456	0.906220	-0.422759	0.006246	-0.011772	-0.010460	0.999876	
4395														-0.122675	-0.069087	9.802340	-0.422659	-0.906173	-0.014466	0.906213	-0.422776	0.006222	-0.011754	-0.010479	0.999876	
4396														-0.124072	-0.083338	9.772933	-0.422677	-0.906165	-0.014463	0.906204	-0.422794	0.006226	-0.011756	-0.010475	0.999876	
4397														-0.120614	-0.068543	9.743791	-0.422664	-0.906171	-0.014446	0.906210	-0.422782	0.006224	-0.011747	-0.010461	0.999876	
4398														-0.124860	-0.082873	9.787572	-0.422684	-0.906162	-0.014448	0.906201	-0.422802	0.006213	-0.011739	-0.010467	0.999876	
4399														-0.124268	-0.082624	9.772937	-0.422699	-0.906155	-0.014424	0.906194	-0.422816	0.006190	-0.011708	-0.010455	0.999877	
4400														-0.136921	-0.065653	9.787147	-0.422717	-0.906147	-0.014454	0.906186	-0.422834	0.006193	-0.011723	-0.010481	0.999876	
4401														-0.124034	-0.082288	9.758298	-0.422684	-0.906162	-0.014429	0.906201	-0.422801	0.006205	-0.011724	-0.010453	0.999877	
4402														-0.110451	-0.084319	9.773494	-0.422718	-0.906147	-0.014414	0.906185	-0.422835	0.006236	-0.011746	-0.010426	0.999877	
4403														-0.138240	-0.064556	9.801781	-0.422738	-0.906138	-0.014377	0.906176	-0.422855	0.006241	-0.011734	-0.010389	0.999877	
4404														-0.125209	-0.080782	9.772940	-0.422726	-0.906144	-0.014330	0.906182	-0.422843	0.006260	-0.011732	-0.010340	0.999878	
4405														-0.120547	-0.051397	9.773197	-0.422728	-0.906143	-0.014319	0.906180	-0.422845	0.006279	-0.011745	-0.010322	0.999878	
4406														-0.126240	-0.080028	9.787578	-0.422727	-0.906144	-0.014316	0.906181	-0.422843	0.006283	-0.011746	-0.010316	0.999878	
4407														-0.122793	-0.065346	9.758431	-0.422746	-0.906135	-0.014319	0.906172	-0.422863	0.006272	-0.011739	-0.010324	0.999878	
4408														-0.138574	-0.062842	9.787142	-0.422763	-0.906127	-0.014328	0.906164	-0.422880	0.006281	-0.011750	-0.010328	0.999878	
4409														-0.140685	-0.077071	9.772375	-0.422802	-0.906109	-0.014325	0.906146	-0.422918	0.006284	-0.011752	-0.010323	0.999878	
4410														-0.127114	-0.079200	9.787573	-0.422818	-0.906102	-0.014308	0.906138	-0.422935	0.006314	-0.011772	-0.010295	0.999878	
4411														-0.113015	-0.081237	9.788135	-0.422852	-0.906086	-0.014298	0.906122	-0.422969	0.006330	-0.011783	-0.010279	0.999878	
4412														-0.113310	-0.080997	9.788134	-0.422845	-0.906089	-0.014308	0.906125	-0.422962	0.006342	-0.011798	-0.010283	0.999878	
4413														-0.124986	-0.064005	9.773056	-0.422842	-0.906090	-0.014325	0.906127	-0.422959	0.006338	-0.011802	-0.010300	0.999877	
4414														-0.124502	-0.063858	9.758419	-0.422853	-0.906085	-0.014313	0.906122	-0.422970	0.006322	-0.011783	-0.010296	0.999878	
4415														-0.113782	-0.080415	9.788133	-0.422846	-0.906089	-0.014283	0.906125	-0.422963	0.006348	-0.011793	-0.010258	0.999878	
4416														-0.124824	-0.063347	9.758418	-0.422805	-0.906107	-0.014325	0.906144	-0.422922	0.006325	-0.011789	-0.010306	0.999877	
4417														-0.128561	-0.077780	9.787566	-0.422823	-0.906099	-0.014301	0.906135	-0.422940	0.006336	-0.011789	-0.010279	0.999878	
4418														-0.111781	-0.065549	9.788256	-0.422849	-0.906087	-0.014309	0.906124	-0.422966	0.006312	-0.011772	-0.010297	0.999878	
4419														-0.127586	-0.077386	9.758292	-0.422877	-0.906074	-0.014305	0.906111	-0.422994	0.006316	-0.011774	-0.010291	0.999878	
4420														-0.125345	-0.062712	9.758415	-0.422891	-0.906068	-0.014301	0.906104	-0.423008	0.006320	-0.011776	-0.010286	0.999878	
4421														-0.116436	-0.093842	9.773371	-0.422916	-0.906056	-0.014290	0.906092	-0.423033	0.006303	-0.011756	-0.010282	0.999878	
4422														-0.114677	-0.079307	9.788132	-0.422909	-0.906059	-0.014306	0.906096	-0.423025	0.006300	-0.011760	-0.010298	0.999878	
4423														-0.113557	-0.079088	9.758858	-0.422958	-0.906037	-0.014281	0.906073	-0.423074	0.006277	-0.011729	-0.010285	0.999878	
4424														-0.114905	-0.078912	9.788132	-0.422935	-0.906047	-0.014297	0.906084	-0.423052	0.006307	-0.011763	-0.010287	0.999878	
4425														-0.129023	-0.076479	9.772925	-0.422954	-0.906038	-0.014329	0.906075	-0.423070	0.006275	-0.011748	-0.010329	0.999878	
4426														-0.097829	-0.066882	9.774181	-0.422945	-0.906042	-0.014325	0.906079	-0.423061	0.006280	-0.011750	-0.010324	0.999878	
4427														-0.114766	-0.078569	9.773492	-0.422946	-0.906042	-0.014293	0.906079	-0.423062	0.006272	-0.011729	-0.010298	0.999878	
4428														-0.115421	-0.078269	9.788131	-0.422955	-0.906038	-0.014288	0.906075	-0.423071	0.006276	-0.011731	-0.010292	0.999878	
4429														-0.128934	-0.075499	9.758289	-0.422936	-0.906047	-0.014277	0.906083	-0.423052	0.006295	-0.011744	-0.010274	0.999878	
4430														-0.101414	-0.080175	9.788698	-0.422945	-0.906043	-0.014279	0.906080	-0.423061	0.006286	-0.011736	-0.010280	0.999878	
4431														-0.127944	-0.060652	9.787684	-0.422945	-0.906043	-0.014263	0.906079	-0.423061	0.006284	-0.011728	-0.010266	0.999879	
4432														-0.130462	-0.074981	9.787562	-0.422935	-0.906047	-0.014286	0.906084	-0.423051	0.006267	-0.011722	-0.010294	0.999878	
4433														-0.116167	-0.077231	9.788131	-0.422914	-0.906057	-0.014259	0.906094	-0.423030	0.006278	-0.011721	-0.010265	0.999879	
4434														-0.130677	-0.074477	9.787563	-0.422953	-0.906040	-0.014249	0.906076	-0.423068	0.006260	-0.011700	-0.010263	0.999879	
4435														-0.114946	-0.076543	9.758863	-0.422951	-0.906041	-0.014211	0.906077	-0.423066	0.006232	-0.011658	-0.010241	0.999880	
4436														-0.132304	-0.088329	9.772814	-0.422959	-0.906037	-0.014213	0.906074	-0.423074	0.006221	-0.011649	-0.010247	0.999880	
4437														-0.130073	-0.073651	9.772933	-0.422982	-0.906027	-0.014205	0.906063	-0.423097	0.006237	-0.011661	-0.010232	0.999880	
4438														-0.112933	-0.061364	9.758982	-0.422993	-0.906022	-0.014212	0.906058	-0.423108	0.006248	-0.011674	-0.010234	0.999879	
4439														-0.131293	-0.073138	9.787565	-0.422994	-0.906021	-0.014196	0.906057	-0.423109	0.006279	-0.011695	-0.010206	0.999880	
4440														-0.116618	-0.075239	9.773497	-0.422979	-0.906028	-0.014204	0.906064	-0.423094	0.006290	-0.011709	-0.010209	0.999879	
4441														-0.119758	-0.089533	9.788015	-0.422981	-0.906028	-0.014193	0.906063	-0.423096	0.006275	-0.011690	-0.010206	0.999880	
4442														-0.116835	-0.074737	9.773498	-0.422991	-0.906023	-0.014171	0.906059	-0.423105	0.006286	-0.011691	-0.010181	0.999880	
4443														-0.116489	-0.074427	9.758861	-0.422973	-0.906031	-0.014181	0.906066	-0.423089	0.006296	-0.011704	-0.010185	0.999880	
4444														-0.134226	-0.086343	9.772806	-0.423006	-0.906016	-0.014191	0.906051	-0.423121	0.006306	-0.011718	-0.010191	0.999879	
4445														-0.118750	-0.074334	9.802766	-0.423001	-0.906018	-0.014214	0.906053	-0.423116	0.006289	-0.011712	-0.010218	0.999879	
4446														-0.118260	-0.074196	9.788129	-0.423030	-0.906005	-0.014196	0.906040	-0.423145	0.006286	-0.011702	-0.010203	0.999879	
4447														-0.117867	-0.073945	9.773492	-0.423036	-0.906002	-0.014206	0.906037	-0.423151	0.006297	-0.011716	-0.010208	0.999879	
4448														-0.117385	-0.073913	9.758854	-0.423024	-0.906007	-0.014221	0.906043	-0.423140	0.006261	-0.011690	-0.010236	0.999879	
4449														-0.118226	-0.073856	9.773488	-0.423053	-0.905993	-0.014232	0.906029	-0.423169	0.006305	-0.011735	-0.010227	0.999879	
4450														-0.118408	-0.073521	9.773488	-0.423065	-0.905988	-0.014194	0.906024	-0.423180	0.006276	-0.011692	-0.010205	0.999880	
4451														-0.102771	-0.075577	9.744792	-0.423052	-0.905994	-0.014190	0.906030	-0.423167	0.006280	-0.011695	-0.010200	0.999880	
4452														-0.118663	-0.072855	9.773490	-0.423029	-0.906005	-0.014173	0.906040	-0.423144	0.006312	-0.011716	-0.010171	0.999880	
4453														-0.135795	-0.084547	9.772800	-0.423059	-0.905992	-0.014170	0.906027	-0.423174	0.006316	-0.011718	-0.010166	0.999880	
4454														-0.133673	-0.069755	9.772913	-0.423076	-0.905984	-0.014152	0.906018	-0.423191	0.006347	-0.011739	-0.010137	0.999880	
4455														-0.135190	-0.069494	9.802184	-0.423080	-0.905982	-0.014163	0.906016	-0.423195	0.006356	-0.011752	-0.010143	0.999879	
4456														-0.119094	-0.071839	9.758849	-0.423095	-0.905974	-0.014179	0.906009	-0.423210	0.006318	-0.011725	-0.010174	0.999880	
4457														-0.136569	-0.083836	9.772795	-0.423085	-0.905979	-0.014174	0.906014	-0.423200	0.006322	-0.011726	-0.010167	0.999880	
4458														-0.121178	-0.071379	9.802758	-0.423095	-0.905975	-0.014138	0.906009	-0.423210	0.006361	-0.011747	-0.010118	0.999880	
4459														-0.122147	-0.085273	9.758736	-0.423125	-0.905961	-0.014128	0.905995	-0.423240	0.006379	-0.011758	-0.010101	0.999880	
4460														-0.105543	-0.072945	9.759425	-0.423138	-0.905955	-0.014125	0.905989	-0.423253	0.006382	-0.011761	-0.010097	0.999880	
4461														-0.120807	-0.070266	9.773483	-0.423159	-0.905946	-0.014114	0.905979	-0.423274	0.006399	-0.011772	-0.010079	0.999880	
4462														-0.134943	-0.067501	9.758266	-0.423173	-0.905939	-0.014104	0.905972	-0.423288	0.006417	-0.011783	-0.010062	0.999880	
4463														-0.123640	-0.084198	9.773370	-0.423201	-0.905926	-0.014113	0.905960	-0.423316	0.006393	-0.011766	-0.010081	0.999880	
4464														-0.120788	-0.069560	9.758844	-0.423177	-0.905937	-0.014102	0.905970	-0.423293	0.006411	-0.011777	-0.010063	0.999880	
4465														-0.121501	-0.069188	9.773482	-0.423176	-0.905938	-0.014072	0.905971	-0.423291	0.006402	-0.011756	-0.010040	0.999880	
4466														-0.118612	-0.054712	9.758954	-0.423195	-0.905928	-0.014129	0.905962	-0.423310	0.006382	-0.011763	-0.010099	0.999880	
4467														-0.121278	-0.069190	9.758841	-0.423218	-0.905918	-0.014120	0.905951	-0.423333	0.006400	-0.011775	-0.010083	0.999880	
4468														-0.107087	-0.071411	9.759420	-0.423219	-0.905917	-0.014137	0.905951	-0.423335	0.006397	-0.011780	-0.010100	0.999880	
4469														-0.124771	-0.083395	9.773363	-0.423237	-0.905908	-0.014148	0.905942	-0.423353	0.006407	-0.011793	-0.010105	0.999879	
4470														-0.110053	-0.085754	9.759304	-0.423235	-0.905909	-0.014181	0.905943	-0.423352	0.006410	-0.011810	-0.010134	0.999879	
4471														-0.123532	-0.068851	9.788103	-0.423232	-0.905910	-0.014177	0.905944	-0.423348	0.006414	-0.011812	-0.010129	0.999879	
4472														-0.122489	-0.068651	9.758829	-0.423239	-0.905907	-0.014181	0.905941	-0.423355	0.006404	-0.011805	-0.010137	0.999879	
4473														-0.140544	-0.080562	9.787411	-0.423217	-0.905918	-0.014169	0.905952	-0.423333	0.006388	-0.011785	-0.010133	0.999879	
4474														-0.122609	-0.068262	9.758831	-0.423237	-0.905908	-0.014166	0.905942	-0.423353	0.006392	-0.011788	-0.010128	0.999879	
4475														-0.122655	-0.068202	9.758831	-0.423226	-0.905913	-0.014180	0.905948	-0.423342	0.006355	-0.011760	-0.010157	0.999879	
4476														-0.125678	-0.082501	9.773359	-0.423247	-0.905904	-0.014157	0.905938	-0.423362	0.006367	-0.011761	-0.010131	0.999880	
4477														-0.122883	-0.067809	9.758830	-0.423287	-0.905885	-0.014174	0.905919	-0.423403	0.006362	-0.011764	-0.010148	0.999879	
4478														-0.112279	-0.084602	9.788575	-0.423277	-0.905889	-0.014182	0.905924	-0.423392	0.006372	-0.011777	-0.010150	0.999879	
4479														-0.109491	-0.070013	9.774046	-0.423306	-0.905876	-0.014185	0.905910	-0.423422	0.006362	-0.011769	-0.010157	0.999879	
4480														-0.123929	-0.067616	9.773463	-0.423309	-0.905874	-0.014200	0.905909	-0.423425	0.006325	-0.011742	-0.010187	0.999879	
4481														-0.109649	-0.070048	9.774044	-0.423337	-0.905861	-0.014224	0.905896	-0.423453	0.006341	-0.011767	-0.010201	0.999879	
4482														-0.112335	-0.084258	9.773934	-0.423318	-0.905870	-0.014200	0.905905	-0.423434	0.006352	-0.011767	-0.010175	0.999879	
4483														-0.124410	-0.067140	9.773460	-0.423302	-0.905877	-0.014196	0.905913	-0.423417	0.006321	-0.011737	-0.010184	0.999879	
4484														-0.112941	-0.083885	9.788574	-0.423321	-0.905868	-0.014240	0.905901	-0.423440	0.006534	-0.011949	-0.010134	0.999877	
4485														-0.136542	-0.050071	9.772983	-0.423339	-0.905860	-0.014245	0.905893	-0.423457	0.006524	-0.011942	-0.010142	0.999877	
4486														-0.127021	-0.081192	9.773352	-0.423320	-0.905868	-0.014240	0.905902	-0.423438	0.006529	-0.011944	-0.010137	0.999877	
4487														-0.108371	-0.054369	9.788790	-0.423353	-0.905854	-0.014203	0.905887	-0.423470	0.006500	-0.011902	-0.010114	0.999878	
4488														-0.111977	-0.082879	9.759307	-0.423368	-0.905847	-0.014192	0.905880	-0.423485	0.006517	-0.011914	-0.010097	0.999878	
