// Start Time: Unknown: 
// Update Rate: 60.0Hz 
// Filter Profile: human (46.1) 
// Firmware Version: 4.6.0
PacketCounter	SampleTimeFine	Year	Month	Day	Second	UTC_Nano	UTC_Year	UTC_Month	UTC_Day	UTC_Hour	UTC_Minute	UTC_Second	UTC_Valid	Acc_X	Acc_Y	Acc_Z	Mat[1][1]	Mat[2][1]	Mat[3][1]	Mat[1][2]	Mat[2][2]	Mat[3][2]	Mat[1][3]	Mat[2][3]	Mat[3][3] 
3598														-0.087229	0.054114	9.756749	-0.995643	0.092665	-0.010409	-0.092728	-0.995675	0.005806	-0.009826	0.006746	0.999929	
3599														-0.102116	0.068414	9.741933	-0.995641	0.092682	-0.010416	-0.092746	-0.995673	0.005812	-0.009833	0.006752	0.999929	
3600														-0.087252	0.069035	9.741864	-0.995643	0.092670	-0.010378	-0.092733	-0.995674	0.005822	-0.009793	0.006759	0.999929	
3601														-0.101444	0.054768	9.771464	-0.995639	0.092703	-0.010429	-0.092767	-0.995671	0.005807	-0.009846	0.006750	0.999929	
3602														-0.116894	0.084023	9.771050	-0.995639	0.092705	-0.010422	-0.092768	-0.995671	0.005829	-0.009837	0.006771	0.999929	
3603														-0.087197	0.070160	9.756504	-0.995640	0.092692	-0.010414	-0.092756	-0.995672	0.005837	-0.009828	0.006777	0.999929	
3604														-0.101759	0.069813	9.741927	-0.995639	0.092711	-0.010405	-0.092774	-0.995670	0.005829	-0.009819	0.006769	0.999929	
3605														-0.100763	0.041477	9.786348	-0.995637	0.092728	-0.010397	-0.092792	-0.995668	0.005836	-0.009811	0.006775	0.999929	
3606														-0.087225	0.085301	9.741614	-0.995637	0.092731	-0.010404	-0.092795	-0.995668	0.005841	-0.009817	0.006781	0.999929	
3607														-0.100757	0.041751	9.771700	-0.995637	0.092734	-0.010410	-0.092797	-0.995668	0.005831	-0.009824	0.006772	0.999929	
3608														-0.086505	0.056475	9.756742	-0.995636	0.092737	-0.010412	-0.092801	-0.995668	0.005792	-0.009830	0.006733	0.999929	
3609														-0.101363	0.055974	9.742164	-0.995634	0.092755	-0.010451	-0.092819	-0.995666	0.005794	-0.009868	0.006738	0.999929	
3610														-0.087135	0.071481	9.756495	-0.995635	0.092742	-0.010458	-0.092806	-0.995667	0.005799	-0.009874	0.006744	0.999929	
3611														-0.086936	0.072264	9.785786	-0.995634	0.092760	-0.010450	-0.092824	-0.995666	0.005806	-0.009866	0.006751	0.999929	
3612														-0.101636	0.071667	9.756562	-0.995635	0.092747	-0.010455	-0.092811	-0.995667	0.005796	-0.009872	0.006741	0.999929	
3613														-0.086737	0.057572	9.756734	-0.995636	0.092734	-0.010478	-0.092799	-0.995668	0.005800	-0.009894	0.006747	0.999928	
3614														-0.090452	0.057574	9.753088	-0.995635	0.092745	-0.010483	-0.092809	-0.995667	0.005790	-0.009901	0.006738	0.999928	
3615														-0.094168	0.057576	9.749443	-0.995634	0.092755	-0.010489	-0.092819	-0.995666	0.005780	-0.009907	0.006729	0.999928	
3616														-0.086926	0.072803	9.756487	-0.995632	0.092773	-0.010451	-0.092837	-0.995664	0.005790	-0.009868	0.006735	0.999929	
3617														-0.086713	0.073121	9.771134	-0.995635	0.092746	-0.010468	-0.092809	-0.995667	0.005749	-0.009889	0.006695	0.999929	
3618														-0.116206	0.072033	9.741981	-0.995633	0.092763	-0.010475	-0.092827	-0.995666	0.005754	-0.009896	0.006701	0.999929	
3619														-0.086177	0.043709	9.742329	-0.995633	0.092766	-0.010468	-0.092830	-0.995665	0.005761	-0.009888	0.006708	0.999929	
3620														-0.101753	0.087598	9.741662	-0.995633	0.092769	-0.010475	-0.092833	-0.995665	0.005766	-0.009895	0.006714	0.999929	
3621														-0.101086	0.058533	9.742152	-0.995631	0.092787	-0.010481	-0.092851	-0.995663	0.005757	-0.009901	0.006705	0.999929	
3622														-0.101022	0.058926	9.756797	-0.995632	0.092775	-0.010486	-0.092839	-0.995665	0.005747	-0.009908	0.006696	0.999928	
3623														-0.101500	0.073613	9.741902	-0.995631	0.092777	-0.010511	-0.092841	-0.995664	0.005766	-0.009930	0.006717	0.999928	
3624														-0.101290	0.074230	9.756547	-0.995633	0.092766	-0.010473	-0.092830	-0.995665	0.005777	-0.009891	0.006724	0.999928	
3625														-0.086163	0.060145	9.756723	-0.995630	0.092799	-0.010494	-0.092863	-0.995662	0.005766	-0.009913	0.006715	0.999928	
3626														-0.101139	0.074573	9.741898	-0.995631	0.092786	-0.010474	-0.092850	-0.995663	0.005805	-0.009890	0.006752	0.999928	
3627														-0.085945	0.060810	9.756721	-0.995632	0.092775	-0.010478	-0.092838	-0.995664	0.005780	-0.009896	0.006728	0.999928	
3628														-0.100993	0.074862	9.741898	-0.995630	0.092793	-0.010482	-0.092856	-0.995663	0.005755	-0.009903	0.006704	0.999928	
3629														-0.085946	0.060953	9.756720	-0.995631	0.092780	-0.010489	-0.092843	-0.995664	0.005760	-0.009909	0.006709	0.999928	
3630														-0.100594	0.060982	9.756789	-0.995631	0.092782	-0.010498	-0.092846	-0.995664	0.005781	-0.009916	0.006731	0.999928	
3631														-0.100392	0.061781	9.786080	-0.995628	0.092816	-0.010488	-0.092880	-0.995661	0.005774	-0.009907	0.006723	0.999928	
3632														-0.086146	0.076557	9.756465	-0.995628	0.092819	-0.010497	-0.092883	-0.995660	0.005795	-0.009914	0.006744	0.999928	
3633														-0.100657	0.061217	9.727493	-0.995627	0.092822	-0.010515	-0.092886	-0.995660	0.005753	-0.009935	0.006705	0.999928	
3634														-0.100387	0.062043	9.771431	-0.995629	0.092810	-0.010491	-0.092874	-0.995661	0.005762	-0.009911	0.006711	0.999928	
3635														-0.085928	0.076996	9.756464	-0.995626	0.092844	-0.010482	-0.092907	-0.995658	0.005755	-0.009903	0.006703	0.999928	
3636														-0.114728	0.061825	9.756858	-0.995623	0.092877	-0.010474	-0.092940	-0.995655	0.005746	-0.009894	0.006695	0.999929	
3637														-0.085642	0.077620	9.771109	-0.995625	0.092849	-0.010481	-0.092913	-0.995658	0.005752	-0.009901	0.006700	0.999929	
3638														-0.084886	0.048629	9.771610	-0.995626	0.092837	-0.010473	-0.092900	-0.995659	0.005759	-0.009893	0.006707	0.999929	
3639														-0.099732	0.047894	9.727742	-0.995627	0.092824	-0.010497	-0.092888	-0.995660	0.005778	-0.009915	0.006727	0.999928	
3640														-0.099731	0.063668	9.771427	-0.995626	0.092842	-0.010458	-0.092906	-0.995658	0.005788	-0.009875	0.006734	0.999929	
3641														-0.084593	0.049440	9.771609	-0.995628	0.092815	-0.010476	-0.092878	-0.995661	0.005746	-0.009897	0.006694	0.999929	
3642														-0.085423	0.078538	9.756456	-0.995629	0.092802	-0.010483	-0.092866	-0.995662	0.005751	-0.009904	0.006700	0.999929	
3643														-0.099659	0.064100	9.771425	-0.995629	0.092805	-0.010490	-0.092868	-0.995662	0.005757	-0.009911	0.006706	0.999928	
3644														-0.084935	0.064486	9.756706	-0.995629	0.092807	-0.010467	-0.092871	-0.995661	0.005765	-0.009887	0.006712	0.999929	
3645														-0.084442	0.050066	9.756960	-0.995629	0.092810	-0.010473	-0.092874	-0.995661	0.005755	-0.009893	0.006703	0.999929	
3646														-0.084361	0.049957	9.742314	-0.995629	0.092813	-0.010448	-0.092877	-0.995661	0.005749	-0.009869	0.006694	0.999929	
3647														-0.084133	0.065444	9.786001	-0.995627	0.092832	-0.010407	-0.092895	-0.995659	0.005729	-0.009830	0.006671	0.999929	
3648														-0.083773	0.050437	9.756964	-0.995628	0.092820	-0.010429	-0.092883	-0.995661	0.005733	-0.009852	0.006677	0.999929	
3649														-0.084192	0.065189	9.742061	-0.995631	0.092792	-0.010422	-0.092855	-0.995663	0.005755	-0.009843	0.006698	0.999929	
3650														-0.098198	0.050678	9.757037	-0.995630	0.092810	-0.010396	-0.092873	-0.995661	0.005734	-0.009819	0.006674	0.999930	
3651														-0.083754	0.065740	9.756708	-0.995631	0.092798	-0.010402	-0.092861	-0.995663	0.005724	-0.009826	0.006665	0.999930	
3652														-0.098613	0.080770	9.785817	-0.995627	0.092831	-0.010410	-0.092894	-0.995660	0.005729	-0.009833	0.006671	0.999929	
3653														-0.098261	0.066168	9.771426	-0.995627	0.092834	-0.010403	-0.092897	-0.995659	0.005736	-0.009825	0.006678	0.999929	
3654														-0.083257	0.051580	9.742316	-0.995627	0.092837	-0.010393	-0.092900	-0.995659	0.005728	-0.009816	0.006669	0.999930	
3655														-0.097898	0.051267	9.727744	-0.995625	0.092855	-0.010402	-0.092918	-0.995657	0.005749	-0.009823	0.006691	0.999929	
3656														-0.082901	0.052689	9.771606	-0.995628	0.092827	-0.010377	-0.092890	-0.995660	0.005742	-0.009799	0.006681	0.999930	
3657														-0.097535	0.052039	9.742390	-0.995629	0.092815	-0.010385	-0.092878	-0.995661	0.005748	-0.009806	0.006687	0.999930	
3658														-0.112051	0.037261	9.742720	-0.995628	0.092817	-0.010437	-0.092881	-0.995661	0.005733	-0.009859	0.006678	0.999929	
3659														-0.083339	0.068324	9.785988	-0.995626	0.092851	-0.010415	-0.092914	-0.995658	0.005757	-0.009835	0.006699	0.999929	
3660														-0.083830	0.082630	9.741788	-0.995625	0.092853	-0.010439	-0.092916	-0.995657	0.005776	-0.009857	0.006721	0.999929	
3661														-0.097839	0.053027	9.727735	-0.995624	0.092871	-0.010430	-0.092934	-0.995656	0.005767	-0.009849	0.006711	0.999929	
3662														-0.097837	0.068525	9.771414	-0.995626	0.092844	-0.010418	-0.092907	-0.995658	0.005744	-0.009840	0.006687	0.999929	
3663														-0.083473	0.083590	9.771078	-0.995626	0.092847	-0.010424	-0.092910	-0.995658	0.005734	-0.009847	0.006678	0.999929	
3664														-0.097829	0.068291	9.742121	-0.995627	0.092834	-0.010416	-0.092898	-0.995659	0.005742	-0.009838	0.006684	0.999929	
3665														-0.082263	0.040181	9.771858	-0.995625	0.092852	-0.010424	-0.092916	-0.995657	0.005748	-0.009845	0.006691	0.999929	
3666														-0.082610	0.054447	9.742305	-0.995624	0.092871	-0.010397	-0.092934	-0.995656	0.005726	-0.009820	0.006667	0.999930	
3667														-0.098181	0.098501	9.756243	-0.995625	0.092858	-0.010421	-0.092921	-0.995657	0.005745	-0.009843	0.006688	0.999929	
3668														-0.097475	0.069699	9.771409	-0.995624	0.092861	-0.010426	-0.092924	-0.995657	0.005721	-0.009849	0.006664	0.999929	
3669														-0.083037	0.069147	9.712749	-0.995623	0.092879	-0.010418	-0.092942	-0.995655	0.005727	-0.009841	0.006671	0.999929	
3670														-0.082965	0.084878	9.756424	-0.995623	0.092882	-0.010395	-0.092945	-0.995655	0.005736	-0.009817	0.006677	0.999930	
3671														-0.096602	0.055726	9.771672	-0.995621	0.092900	-0.010386	-0.092963	-0.995653	0.005728	-0.009808	0.006668	0.999930	
3672														-0.097028	0.069985	9.742117	-0.995621	0.092903	-0.010391	-0.092966	-0.995653	0.005719	-0.009814	0.006660	0.999930	
3673														-0.082389	0.070752	9.756685	-0.995620	0.092906	-0.010411	-0.092969	-0.995653	0.005707	-0.009836	0.006650	0.999930	
3674														-0.097108	0.070463	9.756760	-0.995622	0.092894	-0.010415	-0.092956	-0.995654	0.005682	-0.009842	0.006625	0.999930	
3675														-0.082462	0.070776	9.742037	-0.995621	0.092896	-0.010409	-0.092959	-0.995654	0.005704	-0.009834	0.006647	0.999930	
3676														-0.097249	0.085545	9.756495	-0.995623	0.092884	-0.010398	-0.092947	-0.995655	0.005681	-0.009825	0.006623	0.999930	
3677														-0.096379	0.056334	9.757024	-0.995622	0.092887	-0.010388	-0.092950	-0.995655	0.005674	-0.009816	0.006614	0.999930	
3678														-0.096453	0.056361	9.742377	-0.995622	0.092890	-0.010412	-0.092952	-0.995654	0.005693	-0.009838	0.006636	0.999930	
3679														-0.082105	0.072114	9.771324	-0.995623	0.092878	-0.010416	-0.092940	-0.995656	0.005668	-0.009844	0.006612	0.999930	
3680														-0.096825	0.071898	9.771400	-0.995621	0.092896	-0.010438	-0.092958	-0.995654	0.005672	-0.009866	0.006618	0.999929	
3681														-0.081892	0.057573	9.756940	-0.995618	0.092929	-0.010429	-0.092991	-0.995651	0.005664	-0.009857	0.006609	0.999930	
3682														-0.082181	0.072289	9.756675	-0.995616	0.092947	-0.010433	-0.093009	-0.995649	0.005639	-0.009863	0.006585	0.999930	
3683														-0.081744	0.057722	9.756941	-0.995615	0.092966	-0.010424	-0.093028	-0.995648	0.005632	-0.009855	0.006577	0.999930	
3684														-0.096679	0.072224	9.756752	-0.995613	0.092983	-0.010432	-0.093046	-0.995646	0.005637	-0.009862	0.006583	0.999930	
3685														-0.082110	0.072687	9.742025	-0.995613	0.092986	-0.010441	-0.093048	-0.995646	0.005658	-0.009869	0.006605	0.999929	
3686														-0.096686	0.072887	9.756747	-0.995614	0.092974	-0.010446	-0.093036	-0.995647	0.005648	-0.009876	0.006595	0.999929	
3687														-0.096249	0.058466	9.757013	-0.995612	0.092992	-0.010438	-0.093054	-0.995645	0.005655	-0.009867	0.006602	0.999930	
3688														-0.081604	0.058781	9.742289	-0.995612	0.092995	-0.010443	-0.093057	-0.995645	0.005646	-0.009873	0.006593	0.999930	
3689														-0.096686	0.073010	9.727451	-0.995610	0.093012	-0.010451	-0.093075	-0.995643	0.005651	-0.009879	0.006599	0.999929	
3690														-0.081323	0.060184	9.786223	-0.995607	0.093046	-0.010445	-0.093108	-0.995640	0.005674	-0.009871	0.006622	0.999929	
3691														-0.095962	0.059502	9.757009	-0.995608	0.093034	-0.010434	-0.093096	-0.995641	0.005650	-0.009863	0.006597	0.999930	
3692														-0.096178	0.074140	9.756742	-0.995610	0.093022	-0.010423	-0.093084	-0.995642	0.005627	-0.009854	0.006573	0.999930	
3693														-0.095736	0.059375	9.742366	-0.995608	0.093039	-0.010415	-0.093101	-0.995641	0.005634	-0.009846	0.006579	0.999930	
3694														-0.095667	0.059941	9.757010	-0.995607	0.093042	-0.010438	-0.093104	-0.995640	0.005638	-0.009868	0.006585	0.999930	
3695														-0.095962	0.074802	9.756739	-0.995609	0.093030	-0.010413	-0.093092	-0.995642	0.005632	-0.009844	0.006576	0.999930	
3696														-0.095592	0.059911	9.727717	-0.995609	0.093033	-0.010422	-0.093095	-0.995641	0.005652	-0.009850	0.006598	0.999930	
3697														-0.095159	0.046258	9.757276	-0.995605	0.093065	-0.010446	-0.093128	-0.995638	0.005672	-0.009872	0.006619	0.999929	
3698														-0.081402	0.075806	9.727360	-0.995605	0.093068	-0.010440	-0.093131	-0.995638	0.005694	-0.009864	0.006641	0.999929	
3699														-0.110770	0.090753	9.771182	-0.995606	0.093056	-0.010443	-0.093118	-0.995639	0.005669	-0.009870	0.006617	0.999929	
3700														-0.095460	0.061635	9.757001	-0.995604	0.093074	-0.010450	-0.093136	-0.995637	0.005660	-0.009877	0.006608	0.999929	
3701														-0.095682	0.076423	9.756729	-0.995606	0.093062	-0.010425	-0.093124	-0.995638	0.005654	-0.009853	0.006600	0.999930	
3702														-0.095237	0.061655	9.742356	-0.995603	0.093095	-0.010431	-0.093157	-0.995635	0.005644	-0.009860	0.006591	0.999930	
3703														-0.095168	0.062351	9.771646	-0.995602	0.093098	-0.010452	-0.093160	-0.995635	0.005633	-0.009882	0.006582	0.999930	
3704														-0.095317	0.062170	9.742352	-0.995601	0.093115	-0.010447	-0.093178	-0.995633	0.005671	-0.009874	0.006619	0.999929	
3705														-0.080531	0.063259	9.756916	-0.995602	0.093103	-0.010454	-0.093166	-0.995634	0.005676	-0.009880	0.006625	0.999929	
3706														-0.080162	0.048913	9.757189	-0.995600	0.093121	-0.010462	-0.093184	-0.995633	0.005681	-0.009887	0.006631	0.999929	
3707														-0.095180	0.063404	9.756993	-0.995600	0.093124	-0.010467	-0.093186	-0.995633	0.005672	-0.009893	0.006622	0.999929	
3708														-0.095400	0.062994	9.727700	-0.995600	0.093111	-0.010487	-0.093174	-0.995634	0.005661	-0.009915	0.006613	0.999929	
3709														-0.109972	0.063045	9.742424	-0.995597	0.093145	-0.010478	-0.093207	-0.995631	0.005653	-0.009906	0.006604	0.999929	
3710														-0.095186	0.064193	9.771634	-0.995596	0.093162	-0.010501	-0.093225	-0.995629	0.005657	-0.009928	0.006611	0.999929	
3711														-0.109757	0.064042	9.771713	-0.995597	0.093150	-0.010476	-0.093213	-0.995630	0.005650	-0.009904	0.006602	0.999929	
3712														-0.080544	0.064654	9.756907	-0.995596	0.093153	-0.010513	-0.093215	-0.995630	0.005637	-0.009941	0.006592	0.999929	
3713														-0.109831	0.063922	9.742420	-0.995599	0.093125	-0.010475	-0.093188	-0.995632	0.005662	-0.009902	0.006613	0.999929	
3714														-0.094969	0.064870	9.756985	-0.995596	0.093158	-0.010497	-0.093221	-0.995629	0.005651	-0.009924	0.006605	0.999929	
3715														-0.065612	0.066119	9.771469	-0.995596	0.093161	-0.010489	-0.093224	-0.995629	0.005659	-0.009916	0.006611	0.999929	
3716														-0.094521	0.050392	9.742615	-0.995597	0.093149	-0.010479	-0.093212	-0.995630	0.005651	-0.009907	0.006603	0.999929	
3717														-0.080107	0.065628	9.742257	-0.995597	0.093152	-0.010471	-0.093215	-0.995630	0.005658	-0.009899	0.006609	0.999929	
3718														-0.108800	0.051371	9.786631	-0.995596	0.093154	-0.010494	-0.093217	-0.995630	0.005662	-0.009921	0.006615	0.999929	
3719														-0.094607	0.065768	9.742336	-0.995596	0.093158	-0.010454	-0.093220	-0.995629	0.005657	-0.009881	0.006607	0.999929	
3720														-0.094311	0.066195	9.756982	-0.995599	0.093130	-0.010459	-0.093193	-0.995632	0.005647	-0.009887	0.006597	0.999929	
3721														-0.093932	0.051417	9.742616	-0.995599	0.093133	-0.010449	-0.093196	-0.995632	0.005639	-0.009879	0.006588	0.999930	
3722														-0.079140	0.052147	9.757180	-0.995600	0.093121	-0.010453	-0.093183	-0.995633	0.005614	-0.009885	0.006564	0.999930	
3723														-0.094618	0.080708	9.727411	-0.995600	0.093124	-0.010447	-0.093186	-0.995633	0.005637	-0.009876	0.006585	0.999930	
3724														-0.093491	0.052642	9.771906	-0.995600	0.093127	-0.010439	-0.093189	-0.995632	0.005644	-0.009868	0.006592	0.999930	
3725														-0.093873	0.066940	9.742335	-0.995599	0.093130	-0.010430	-0.093192	-0.995632	0.005636	-0.009859	0.006583	0.999930	
3726														-0.093726	0.067444	9.756980	-0.995598	0.093148	-0.010437	-0.093210	-0.995631	0.005641	-0.009866	0.006589	0.999930	
3727														-0.093653	0.067873	9.771624	-0.995597	0.093151	-0.010440	-0.093213	-0.995630	0.005617	-0.009871	0.006565	0.999930	
3728														-0.108373	0.067429	9.757059	-0.995597	0.093153	-0.010449	-0.093215	-0.995630	0.005637	-0.009879	0.006586	0.999930	
3729														-0.093733	0.067823	9.742330	-0.995594	0.093186	-0.010440	-0.093249	-0.995627	0.005629	-0.009870	0.006578	0.999930	
3730														-0.093588	0.068120	9.742329	-0.995594	0.093189	-0.010435	-0.093251	-0.995627	0.005652	-0.009863	0.006600	0.999930	
3731														-0.093591	0.068698	9.756972	-0.995592	0.093207	-0.010471	-0.093269	-0.995625	0.005638	-0.009900	0.006590	0.999929	
3732														-0.108385	0.068535	9.757051	-0.995591	0.093209	-0.010479	-0.093272	-0.995625	0.005644	-0.009907	0.006596	0.999929	
3733														-0.093745	0.069210	9.756967	-0.995592	0.093197	-0.010486	-0.093259	-0.995626	0.005649	-0.009913	0.006602	0.999929	
3734														-0.079416	0.084888	9.771244	-0.995591	0.093215	-0.010495	-0.093277	-0.995624	0.005670	-0.009920	0.006624	0.999929	
3735														-0.107938	0.054926	9.757329	-0.995591	0.093217	-0.010487	-0.093280	-0.995624	0.005676	-0.009912	0.006629	0.999929	
3736														-0.107792	0.055222	9.757329	-0.995589	0.093235	-0.010479	-0.093298	-0.995622	0.005683	-0.009903	0.006636	0.999929	
3737														-0.093389	0.070258	9.742316	-0.995588	0.093253	-0.010456	-0.093316	-0.995620	0.005692	-0.009879	0.006643	0.999929	
3738														-0.093390	0.070765	9.756959	-0.995587	0.093256	-0.010507	-0.093319	-0.995620	0.005677	-0.009931	0.006633	0.999929	
3739														-0.078751	0.071444	9.756874	-0.995585	0.093274	-0.010470	-0.093337	-0.995618	0.005703	-0.009892	0.006656	0.999929	
3740														-0.093025	0.071723	9.771603	-0.995584	0.093292	-0.010463	-0.093355	-0.995617	0.005710	-0.009884	0.006662	0.999929	
3741														-0.092492	0.057304	9.771889	-0.995585	0.093280	-0.010453	-0.093343	-0.995618	0.005702	-0.009876	0.006653	0.999929	
3742														-0.077699	0.058125	9.786451	-0.995585	0.093283	-0.010459	-0.093345	-0.995618	0.005693	-0.009882	0.006644	0.999929	
3743														-0.092733	0.071948	9.756957	-0.995585	0.093286	-0.010434	-0.093348	-0.995617	0.005687	-0.009857	0.006636	0.999929	
3744														-0.107455	0.071566	9.742393	-0.995584	0.093288	-0.010473	-0.093351	-0.995617	0.005704	-0.009895	0.006657	0.999929	
3745														-0.092648	0.057456	9.742594	-0.995581	0.093322	-0.010491	-0.093384	-0.995614	0.005663	-0.009916	0.006618	0.999929	
3746														-0.092961	0.072385	9.756951	-0.995581	0.093324	-0.010481	-0.093387	-0.995614	0.005655	-0.009908	0.006609	0.999929	
3747														-0.078481	0.087708	9.771226	-0.995568	0.093465	-0.010470	-0.093527	-0.995601	0.005616	-0.009899	0.006571	0.999929	
3748														-0.092218	0.057731	9.757243	-0.995492	0.094273	-0.010452	-0.094335	-0.995525	0.005597	-0.009878	0.006557	0.999930	
3749														-0.106509	0.042562	9.742970	-0.995468	0.094519	-0.010475	-0.094581	-0.995502	0.005585	-0.009900	0.006551	0.999930	
3750														-0.092466	0.073032	9.771598	-0.995466	0.094537	-0.010467	-0.094599	-0.995500	0.005592	-0.009892	0.006557	0.999930	
3751														-0.092248	0.073479	9.771597	-0.995466	0.094539	-0.010448	-0.094602	-0.995499	0.005632	-0.009868	0.006595	0.999930	
3752														-0.105861	0.059377	9.771972	-0.995451	0.094709	-0.010360	-0.094772	-0.995482	0.005740	-0.009770	0.006696	0.999930	
3753														-0.076736	0.074483	9.742221	-0.995446	0.094758	-0.010389	-0.094820	-0.995478	0.005652	-0.009806	0.006612	0.999930	
3754														-0.090709	0.044464	9.742890	-0.995437	0.094853	-0.010377	-0.094914	-0.995470	0.005615	-0.009798	0.006574	0.999930	
3755														-0.076664	0.073905	9.727579	-0.995430	0.094932	-0.010355	-0.094993	-0.995462	0.005623	-0.009774	0.006581	0.999931	
3756														-0.104849	0.045024	9.757622	-0.995391	0.095344	-0.010356	-0.095406	-0.995422	0.005677	-0.009768	0.006639	0.999930	
3757														-0.090435	0.060950	9.771887	-0.995376	0.095498	-0.010368	-0.095560	-0.995407	0.005698	-0.009776	0.006663	0.999930	
3758														-0.091028	0.075968	9.771589	-0.995372	0.095531	-0.010422	-0.095593	-0.995404	0.005699	-0.009830	0.006669	0.999929	
3759														-0.090609	0.046757	9.757526	-0.995374	0.095503	-0.010432	-0.095566	-0.995407	0.005720	-0.009838	0.006690	0.999929	
3760														-0.091414	0.076034	9.742291	-0.995377	0.095475	-0.010438	-0.095538	-0.995409	0.005710	-0.009845	0.006681	0.999929	
3761														-0.091471	0.091857	9.785931	-0.995377	0.095478	-0.010431	-0.095541	-0.995409	0.005732	-0.009836	0.006702	0.999929	
3762														-0.075902	0.047782	9.742791	-0.995366	0.095587	-0.010440	-0.095650	-0.995398	0.005738	-0.009843	0.006710	0.999929	
3763														-0.060244	0.020214	9.772585	-0.995347	0.095786	-0.010429	-0.095850	-0.995379	0.005838	-0.009821	0.006811	0.999929	
3764														-0.046287	0.049875	9.727968	-0.995312	0.096153	-0.010413	-0.096218	-0.995343	0.005878	-0.009799	0.006852	0.999929	
3765														-0.136281	0.151194	9.755693	-0.995344	0.095822	-0.010399	-0.095886	-0.995375	0.005869	-0.009789	0.006839	0.999929	
3766														-0.120125	0.092903	9.756800	-0.995417	0.095066	-0.010394	-0.095130	-0.995448	0.005828	-0.009792	0.006790	0.999929	
3767														-0.090918	0.092942	9.727337	-0.995487	0.094325	-0.010376	-0.094388	-0.995518	0.005819	-0.009781	0.006772	0.999929	
3768														-0.133213	0.033955	9.743435	-0.995546	0.093703	-0.010399	-0.093768	-0.995577	0.005882	-0.009801	0.006831	0.999929	
3769														-0.105333	0.094770	9.771347	-0.995611	0.093006	-0.010391	-0.093072	-0.995642	0.005964	-0.009791	0.006905	0.999928	
3770														-0.121307	0.138667	9.741231	-0.995711	0.091929	-0.010397	-0.091995	-0.995741	0.006059	-0.009796	0.006989	0.999928	
3771														-0.063586	0.159129	9.755157	-0.995888	0.089977	-0.010530	-0.090051	-0.995915	0.006721	-0.009882	0.007641	0.999922	
3772														-0.107047	0.131846	9.755987	-0.996074	0.087898	-0.010499	-0.087971	-0.996100	0.006725	-0.009867	0.007622	0.999922	
3773														-0.053504	0.251386	9.782416	-0.996278	0.085527	-0.010720	-0.085601	-0.996307	0.006671	-0.010110	0.007563	0.999920	
3774														-0.127490	0.218735	9.754169	-0.996503	0.082868	-0.010729	-0.082943	-0.996532	0.006669	-0.010139	0.007536	0.999920	
3775														-0.092412	0.058533	9.742799	-0.996749	0.079859	-0.010704	-0.079934	-0.996778	0.006685	-0.010136	0.007519	0.999920	
3776														-0.108382	0.087453	9.742253	-0.997021	0.076377	-0.010725	-0.076452	-0.997050	0.006742	-0.010178	0.007542	0.999920	
3777														-0.120097	0.336599	9.766189	-0.997295	0.072712	-0.010716	-0.072786	-0.997325	0.006678	-0.010202	0.007440	0.999920	
3778														-0.125129	0.409307	9.764612	-0.997583	0.068649	-0.010742	-0.068724	-0.997613	0.006702	-0.010257	0.007424	0.999920	
3779														-0.108420	0.351261	9.736476	-0.997854	0.064617	-0.010592	-0.064691	-0.997882	0.006805	-0.010130	0.007475	0.999921	
3780														-0.052185	0.142733	9.755450	-0.998082	0.060878	-0.010573	-0.060953	-0.998110	0.006887	-0.010134	0.007519	0.999920	
3781														0.004050	-0.065794	9.774424	-0.998310	0.057139	-0.010554	-0.057214	-0.998338	0.006970	-0.010139	0.007562	0.999920	
3782														-0.525259	0.208445	9.726968	-0.998569	0.052509	-0.010133	-0.052584	-0.998590	0.007216	-0.009740	0.007738	0.999923	
3783														-0.187683	0.407646	9.735509	-0.998836	0.047080	-0.010490	-0.047156	-0.998862	0.007177	-0.010140	0.007664	0.999919	
3784														0.020660	0.336324	9.765410	-0.999107	0.040980	-0.010290	-0.041057	-0.999130	0.007353	-0.009980	0.007769	0.999920	
3785														0.059180	0.047792	9.786439	-0.999305	0.035855	-0.010204	-0.035932	-0.999326	0.007491	-0.009929	0.007852	0.999920	
3786														-0.066914	-0.022388	9.715380	-0.999505	0.029766	-0.010177	-0.029844	-0.999526	0.007544	-0.009948	0.007844	0.999920	
3787														0.115341	-0.238876	9.792829	-0.999656	0.024087	-0.010362	-0.024165	-0.999680	0.007507	-0.010177	0.007755	0.999918	
3788														-0.071015	0.006693	9.758644	-0.999768	0.018852	-0.010376	-0.018929	-0.999794	0.007362	-0.010235	0.007557	0.999919	
3789														-0.090109	0.181098	9.769347	-0.999853	0.013521	-0.010508	-0.013599	-0.999880	0.007392	-0.010407	0.007534	0.999917	
3790														-0.195090	0.182978	9.725720	-0.999914	0.007932	-0.010449	-0.008009	-0.999941	0.007343	-0.010390	0.007427	0.999918	
3791														-0.253890	0.175854	9.755381	-0.999943	0.002264	-0.010454	-0.002341	-0.999970	0.007367	-0.010437	0.007391	0.999918	
3792														-0.165443	0.170374	9.725869	-0.999941	-0.003404	-0.010353	0.003328	-0.999967	0.007397	-0.010378	0.007362	0.999919	
3793														-0.092730	0.062895	9.786707	-0.999904	-0.009152	-0.010377	0.009075	-0.999931	0.007496	-0.010445	0.007401	0.999918	
3794														0.060037	-0.198373	9.748310	-0.999831	-0.015204	-0.010358	0.015127	-0.999858	0.007443	-0.010470	0.007285	0.999919	
3795														0.039187	-0.039383	9.730021	-0.999715	-0.021531	-0.010303	0.021456	-0.999743	0.007331	-0.010458	0.007108	0.999920	
3796														-0.056627	0.213733	9.753749	-0.999549	-0.028198	-0.010313	0.028122	-0.999577	0.007383	-0.010517	0.007090	0.999920	
3797														-0.184008	0.357550	9.736104	-0.999342	-0.034774	-0.010311	0.034697	-0.999370	0.007482	-0.010565	0.007119	0.999919	
3798														-0.076318	0.048862	9.728368	-0.999098	-0.041242	-0.010114	0.041165	-0.999123	0.007665	-0.010421	0.007242	0.999919	
3799														-0.109323	-0.103761	9.776042	-0.998806	-0.047786	-0.010166	0.047710	-0.998832	0.007625	-0.010519	0.007131	0.999919	
3800														-0.091682	0.135795	9.741000	-0.998432	-0.055049	-0.010197	0.054973	-0.998459	0.007645	-0.010602	0.007072	0.999919	
3801														-0.058177	0.187079	9.783633	-0.997983	-0.062634	-0.010373	0.062557	-0.998013	0.007553	-0.010826	0.006889	0.999918	
3802														-0.079750	0.285746	9.737365	-0.997484	-0.070124	-0.010400	0.070048	-0.997515	0.007498	-0.010900	0.006751	0.999918	
3803														0.009795	0.124116	9.755648	-0.996914	-0.077812	-0.010393	0.077737	-0.996946	0.007429	-0.010939	0.006598	0.999918	
3804														-0.099448	-0.003061	9.773482	-0.996241	-0.086002	-0.010411	0.085928	-0.996274	0.007343	-0.011004	0.006421	0.999919	
3805														-0.048447	0.037314	9.787081	-0.995483	-0.094359	-0.010444	0.094285	-0.995518	0.007364	-0.011092	0.006346	0.999918	
3806														-0.184483	0.036237	9.743317	-0.994693	-0.102349	-0.010543	0.102274	-0.994729	0.007432	-0.011248	0.006314	0.999917	
3807														-0.037855	0.115101	9.726624	-0.993902	-0.109770	-0.010450	0.109694	-0.993936	0.007609	-0.011222	0.006416	0.999916	
3808														-0.139749	-0.088312	9.790184	-0.993121	-0.116621	-0.010484	0.116546	-0.993157	0.007482	-0.011285	0.006209	0.999917	
3809														-0.085723	-0.122150	9.761623	-0.992362	-0.122921	-0.010418	0.122846	-0.992397	0.007539	-0.011266	0.006202	0.999917	
3810														-0.152791	0.026117	9.728824	-0.991656	-0.128487	-0.010452	0.128412	-0.991692	0.007537	-0.011334	0.006132	0.999917	
3811														-0.053225	-0.008831	9.744244	-0.991002	-0.133441	-0.010448	0.133366	-0.991038	0.007536	-0.011360	0.006075	0.999917	
3812														-0.117126	0.004218	9.743953	-0.990393	-0.137888	-0.010435	0.137815	-0.990430	0.007475	-0.011366	0.005965	0.999918	
3813														-0.190116	-0.061396	9.745549	-0.989795	-0.142122	-0.010363	0.142049	-0.989831	0.007505	-0.011324	0.005957	0.999918	
3814														-0.170071	0.035088	9.757888	-0.989190	-0.146279	-0.010322	0.146206	-0.989226	0.007536	-0.011313	0.005945	0.999918	
3815														-0.145545	0.056680	9.757358	-0.988578	-0.150358	-0.010298	0.150285	-0.988614	0.007521	-0.011311	0.005887	0.999919	
3816														-0.030833	0.134330	9.755458	-0.987961	-0.154360	-0.010335	0.154287	-0.987998	0.007522	-0.011372	0.005837	0.999918	
3817														-0.145508	0.162653	9.740143	-0.987305	-0.158512	-0.010171	0.158439	-0.987339	0.007611	-0.011249	0.005903	0.999919	
3818														-0.162235	0.066609	9.771789	-0.986609	-0.162797	-0.010023	0.162726	-0.986643	0.007532	-0.011116	0.005800	0.999921	
3819														-0.083755	-0.093864	9.761029	-0.985830	-0.167450	-0.010018	0.167377	-0.985863	0.007699	-0.011166	0.005914	0.999920	
3820														-0.195724	-0.126800	9.791147	-0.985063	-0.171900	-0.010067	0.171829	-0.985097	0.007609	-0.011225	0.005765	0.999920	
3821														-0.118559	-0.029362	9.744784	-0.984347	-0.175953	-0.010061	0.175883	-0.984382	0.007518	-0.011226	0.005631	0.999921	
3822														-0.070896	0.016299	9.772982	-0.983772	-0.179141	-0.010030	0.179070	-0.983807	0.007565	-0.011223	0.005646	0.999921	
3823														-0.045020	-0.114895	9.746860	-0.983306	-0.181687	-0.009998	0.181618	-0.983341	0.007430	-0.011181	0.005490	0.999922	
3824														-0.084994	-0.035656	9.744926	-0.982894	-0.183902	-0.010008	0.183832	-0.982929	0.007511	-0.011219	0.005542	0.999922	
3825														-0.167306	0.031261	9.757949	-0.982532	-0.185827	-0.009963	0.185757	-0.982567	0.007544	-0.011191	0.005562	0.999922	
3826														-0.124563	0.090953	9.741862	-0.982219	-0.187479	-0.009921	0.187409	-0.982253	0.007578	-0.011166	0.005584	0.999922	
3827														-0.073488	0.122418	9.726452	-0.981907	-0.189099	-0.009989	0.189030	-0.981943	0.007524	-0.011232	0.005500	0.999922	
3828														-0.092801	0.039655	9.743122	-0.981580	-0.190796	-0.009916	0.190726	-0.981614	0.007573	-0.011178	0.005542	0.999922	
3829														-0.057060	-0.164292	9.748126	-0.981254	-0.192461	-0.009998	0.192392	-0.981289	0.007519	-0.011258	0.005455	0.999922	
3830														-0.075069	-0.061965	9.760267	-0.980998	-0.193763	-0.009976	0.193693	-0.981033	0.007555	-0.011250	0.005479	0.999922	
3831														-0.097714	0.054647	9.786709	-0.980785	-0.194837	-0.010005	0.194767	-0.980821	0.007501	-0.011274	0.005408	0.999922	
3832														-0.083471	0.197501	9.739258	-0.980574	-0.195896	-0.009967	0.195826	-0.980609	0.007612	-0.011265	0.005512	0.999921	
3833														-0.102311	0.115608	9.755925	-0.980295	-0.197289	-0.009972	0.197218	-0.980329	0.007694	-0.011294	0.005576	0.999921	
3834														-0.111458	0.005272	9.773307	-0.979934	-0.199074	-0.009914	0.199004	-0.979969	0.007681	-0.011245	0.005554	0.999921	
3835														-0.116029	0.064973	9.757174	-0.979579	-0.200814	-0.009949	0.200744	-0.979614	0.007657	-0.011284	0.005503	0.999921	
3836														-0.102512	0.116310	9.770563	-0.979211	-0.202599	-0.009936	0.202528	-0.979246	0.007676	-0.011285	0.005504	0.999921	
3837														-0.129835	0.059624	9.727995	-0.978866	-0.204262	-0.009895	0.204192	-0.978901	0.007664	-0.011252	0.005482	0.999922	
3838														-0.124199	-0.046013	9.759930	-0.978546	-0.205789	-0.009885	0.205718	-0.978581	0.007684	-0.011255	0.005486	0.999922	
3839														-0.156762	0.004899	9.758656	-0.978237	-0.207255	-0.009846	0.207184	-0.978272	0.007703	-0.011228	0.005496	0.999922	
3840														-0.124507	0.046648	9.742991	-0.977942	-0.208644	-0.009839	0.208574	-0.977976	0.007693	-0.011227	0.005471	0.999922	
3841														-0.185190	0.088119	9.756574	-0.977596	-0.210261	-0.009827	0.210191	-0.977630	0.007728	-0.011232	0.005489	0.999922	
3842														-0.088310	0.121956	9.755797	-0.977178	-0.212195	-0.009798	0.212125	-0.977212	0.007716	-0.011212	0.005462	0.999922	
3843														-0.042203	0.122138	9.741169	-0.976802	-0.213917	-0.009849	0.213847	-0.976837	0.007677	-0.011264	0.005393	0.999922	
3844														-0.023695	0.113627	9.756049	-0.976427	-0.215623	-0.009807	0.215553	-0.976462	0.007696	-0.011235	0.005400	0.999922	
3845														-0.078957	0.094349	9.756491	-0.976069	-0.217238	-0.009826	0.217168	-0.976104	0.007702	-0.011265	0.005383	0.999922	
3846														-0.117236	-0.059490	9.745665	-0.975733	-0.218747	-0.009756	0.218677	-0.975767	0.007704	-0.011205	0.005383	0.999923	
3847														-0.113883	0.019164	9.743698	-0.975335	-0.220512	-0.009762	0.220443	-0.975370	0.007648	-0.011208	0.005307	0.999923	
3848														-0.171257	0.091382	9.727185	-0.974873	-0.222549	-0.009760	0.222480	-0.974907	0.007683	-0.011225	0.005318	0.999923	
3849														-0.132121	0.028060	9.758113	-0.974327	-0.224931	-0.009667	0.224863	-0.974361	0.007605	-0.011130	0.005236	0.999924	
3850														-0.255773	0.153911	9.754856	-0.973784	-0.227269	-0.009646	0.227201	-0.973818	0.007638	-0.011130	0.005246	0.999924	
3851														-0.150121	0.036923	9.772535	-0.973276	-0.229439	-0.009615	0.229372	-0.973309	0.007610	-0.011105	0.005201	0.999925	
3852														-0.156294	0.096282	9.741739	-0.972723	-0.231775	-0.009532	0.231708	-0.972755	0.007655	-0.011047	0.005238	0.999925	
3853														-0.116564	0.158305	9.754868	-0.972095	-0.234396	-0.009511	0.234329	-0.972127	0.007612	-0.011030	0.005170	0.999926	
3854														-0.076104	0.173871	9.769158	-0.971373	-0.237364	-0.009590	0.237297	-0.971407	0.007619	-0.011125	0.005125	0.999925	
3855														-0.108561	0.050493	9.728263	-0.970633	-0.240374	-0.009567	0.240308	-0.970667	0.007544	-0.011099	0.005023	0.999926	
3856														-0.068525	-0.011802	9.773829	-0.969898	-0.243324	-0.009569	0.243258	-0.969932	0.007562	-0.011121	0.005007	0.999926	
3857														-0.126477	0.137470	9.726048	-0.969131	-0.246362	-0.009493	0.246296	-0.969165	0.007575	-0.011067	0.005003	0.999926	
3858														-0.121596	0.045285	9.743034	-0.968339	-0.249459	-0.009480	0.249393	-0.968373	0.007562	-0.011067	0.004958	0.999926	
3859														-0.059019	0.086496	9.756727	-0.967556	-0.252480	-0.009476	0.252414	-0.967589	0.007656	-0.011102	0.005016	0.999926	
3860														-0.151767	0.081947	9.771379	-0.966763	-0.255499	-0.009463	0.255433	-0.966796	0.007658	-0.011105	0.004987	0.999926	
3861														-0.058803	0.008475	9.773368	-0.966042	-0.258215	-0.009395	0.258149	-0.966075	0.007611	-0.011042	0.004927	0.999927	
3862														0.024499	-0.116000	9.776650	-0.965297	-0.260989	-0.009277	0.260925	-0.965329	0.007622	-0.010945	0.004936	0.999928	
3863														-0.129712	-0.005481	9.744365	-0.964578	-0.263643	-0.009079	0.263579	-0.964607	0.007703	-0.010789	0.005037	0.999929	
3864														-0.100214	-0.072242	9.746154	-0.963970	-0.265860	-0.008936	0.265796	-0.963998	0.007742	-0.010672	0.005088	0.999930	
3865														-0.179053	0.006178	9.758723	-0.963294	-0.268302	-0.008886	0.268238	-0.963322	0.007711	-0.010629	0.005045	0.999931	
3866														-0.155012	0.254478	9.767029	-0.962642	-0.270637	-0.008756	0.270574	-0.962668	0.007751	-0.010527	0.005092	0.999932	
3867														-0.271055	0.190261	9.783203	-0.962041	-0.272763	-0.008815	0.272700	-0.962068	0.007744	-0.010593	0.005046	0.999931	
3868														0.079381	-0.076301	9.731872	-0.961367	-0.275127	-0.008824	0.275064	-0.961395	0.007764	-0.010620	0.005036	0.999931	
3869														-0.060655	-0.007491	9.759241	-0.960649	-0.277625	-0.008785	0.277562	-0.960676	0.007779	-0.010600	0.005035	0.999931	
3870														-0.060387	-0.007265	9.759243	-0.959964	-0.279987	-0.008780	0.279924	-0.959991	0.007782	-0.010608	0.005013	0.999931	
3871														-0.064253	0.039087	9.758044	-0.959334	-0.282139	-0.008761	0.282075	-0.959361	0.007800	-0.010605	0.005012	0.999931	
3872														-0.068480	0.085630	9.771485	-0.958694	-0.284304	-0.008791	0.284241	-0.958721	0.007776	-0.010638	0.004956	0.999931	
3873														-0.045925	0.142654	9.740730	-0.958054	-0.286453	-0.008759	0.286390	-0.958082	0.007762	-0.010615	0.004928	0.999932	
3874														0.002727	0.068985	9.772021	-0.957355	-0.288781	-0.008785	0.288719	-0.957383	0.007752	-0.010649	0.004885	0.999931	
3875														-0.039189	0.017433	9.743980	-0.956586	-0.291317	-0.008829	0.291255	-0.956615	0.007683	-0.010684	0.004778	0.999932	
3876														-0.058593	0.025422	9.773044	-0.955811	-0.293851	-0.008805	0.293789	-0.955839	0.007700	-0.010678	0.004773	0.999932	
3877														-0.103406	0.052513	9.728309	-0.955000	-0.296475	-0.008840	0.296412	-0.955029	0.007721	-0.010731	0.004754	0.999931	
3878														-0.140310	0.133831	9.784737	-0.954126	-0.299275	-0.008876	0.299212	-0.954156	0.007697	-0.010773	0.004688	0.999931	
3879														-0.152586	0.159483	9.740087	-0.953150	-0.302371	-0.008776	0.302308	-0.953178	0.007783	-0.010719	0.004765	0.999931	
3880														-0.369636	0.141222	9.769457	-0.952148	-0.305511	-0.008754	0.305447	-0.952177	0.007844	-0.010732	0.004795	0.999931	
3881														-0.030320	0.104736	9.756416	-0.950923	-0.309302	-0.008775	0.309239	-0.950952	0.007847	-0.010772	0.004749	0.999931	
3882														-0.097956	0.040639	9.757944	-0.949585	-0.313386	-0.008824	0.313324	-0.949614	0.007823	-0.010831	0.004663	0.999930	
3883														-0.089685	0.125281	9.741094	-0.948234	-0.317452	-0.008713	0.317390	-0.948263	0.007874	-0.010762	0.004701	0.999931	
3884														-0.043985	0.098784	9.756547	-0.946951	-0.321261	-0.008680	0.321200	-0.946979	0.007795	-0.010724	0.004594	0.999932	
3885														-0.082663	0.210923	9.768167	-0.945650	-0.325070	-0.008738	0.325007	-0.945679	0.007880	-0.010824	0.004612	0.999931	
3886														-0.266658	0.283590	9.736483	-0.944375	-0.328755	-0.008712	0.328692	-0.944404	0.007894	-0.010823	0.004592	0.999931	
3887														0.065585	0.007414	9.759243	-0.942975	-0.332747	-0.008776	0.332685	-0.943005	0.007887	-0.010900	0.004518	0.999930	
3888														0.051911	0.132737	9.741281	-0.941246	-0.337609	-0.008715	0.337545	-0.941275	0.008065	-0.010926	0.004650	0.999929	
3889														-0.144383	0.034722	9.772629	-0.939249	-0.343125	-0.008703	0.343062	-0.939279	0.007986	-0.010915	0.004515	0.999930	
3890														-0.091503	0.028014	9.772949	-0.937049	-0.349091	-0.008632	0.349028	-0.937078	0.007977	-0.010873	0.004462	0.999931	
3891														-0.162167	-0.027599	9.730223	-0.934691	-0.355356	-0.008667	0.355294	-0.934721	0.007933	-0.010921	0.004335	0.999931	
3892														-0.091324	0.025592	9.729023	-0.932267	-0.361669	-0.008653	0.361607	-0.932297	0.007914	-0.010930	0.004249	0.999931	
3893														-0.109105	-0.033448	9.759821	-0.929890	-0.367737	-0.008650	0.367675	-0.929920	0.007959	-0.010970	0.004221	0.999931	
3894														-0.166880	0.101171	9.756041	-0.927595	-0.373486	-0.008681	0.373425	-0.927627	0.007886	-0.010998	0.004073	0.999931	
3895														-0.239018	0.226566	9.752434	-0.925251	-0.379254	-0.008762	0.379195	-0.925285	0.007666	-0.011015	0.003770	0.999932	
3896														-0.153233	0.189915	9.768350	-0.922778	-0.385232	-0.008748	0.385174	-0.922812	0.007679	-0.011031	0.003717	0.999932	
3897														-0.104498	0.014671	9.743811	-0.920115	-0.391550	-0.008736	0.391491	-0.920149	0.007755	-0.011075	0.003715	0.999932	
3898														-0.094301	0.054983	9.757448	-0.917325	-0.398043	-0.008747	0.397984	-0.917360	0.007756	-0.011111	0.003634	0.999932	
3899														-0.089120	0.159680	9.754717	-0.914481	-0.404535	-0.008723	0.404477	-0.914516	0.007676	-0.011082	0.003491	0.999932	
3900														-0.127412	0.137054	9.755131	-0.911561	-0.411074	-0.008632	0.411015	-0.911595	0.007832	-0.011088	0.003592	0.999932	
3901														-0.265518	0.053330	9.771322	-0.908585	-0.417612	-0.008618	0.417553	-0.908618	0.007877	-0.011120	0.003558	0.999932	
3902														-0.161433	-0.005399	9.729379	-0.905592	-0.424062	-0.008624	0.424004	-0.905627	0.007802	-0.011118	0.003409	0.999932	
3903														-0.070219	0.069556	9.757162	-0.902715	-0.430153	-0.008588	0.430095	-0.902750	0.007829	-0.011120	0.003373	0.999932	
3904														-0.067834	-0.016815	9.730127	-0.899939	-0.435931	-0.008656	0.435873	-0.899974	0.007811	-0.011195	0.003257	0.999932	
3905														-0.030719	0.007925	9.758986	-0.897040	-0.441866	-0.008516	0.441809	-0.897075	0.007821	-0.011096	0.003253	0.999933	
3906														0.027088	0.080723	9.728098	-0.893913	-0.448160	-0.008491	0.448103	-0.893947	0.007850	-0.011109	0.003212	0.999933	
3907														0.079718	0.082423	9.757671	-0.890296	-0.455305	-0.008403	0.455249	-0.890330	0.007805	-0.011035	0.003123	0.999934	
3908														-0.002540	0.098212	9.771441	-0.886326	-0.462983	-0.008556	0.462927	-0.886362	0.007755	-0.011174	0.002913	0.999933	
3909														0.074779	0.061569	9.714259	-0.881630	-0.471865	-0.008502	0.471810	-0.881666	0.007714	-0.011136	0.002790	0.999934	
3910														-0.167067	-0.126529	9.776275	-0.876613	-0.481123	-0.008404	0.481068	-0.876649	0.007789	-0.011115	0.002785	0.999934	
3911														-0.218643	-0.205184	9.704687	-0.871528	-0.490272	-0.008449	0.490218	-0.871565	0.007768	-0.011173	0.002628	0.999934	
3912														-0.084899	-0.015564	9.759216	-0.866042	-0.499900	-0.008421	0.499846	-0.866080	0.007763	-0.011174	0.002514	0.999934	
3913														-0.248602	0.004537	9.728194	-0.860398	-0.509553	-0.008424	0.509500	-0.860436	0.007750	-0.011197	0.002376	0.999934	
3914														-0.268563	0.098618	9.754843	-0.854483	-0.519410	-0.008460	0.519357	-0.854522	0.007713	-0.011235	0.002197	0.999934	
3915														-0.089304	0.222124	9.752977	-0.848392	-0.529301	-0.008426	0.529248	-0.848431	0.007771	-0.011262	0.002133	0.999934	
3916														-0.061194	0.000275	9.773566	-0.842393	-0.538798	-0.008441	0.538746	-0.842433	0.007701	-0.011260	0.001939	0.999935	
3917														-0.129805	0.035313	9.713468	-0.836346	-0.548138	-0.008364	0.548087	-0.836386	0.007704	-0.011218	0.001859	0.999935	
3918														-0.107831	0.054501	9.757102	-0.830265	-0.557307	-0.008343	0.557256	-0.830305	0.007673	-0.011203	0.001722	0.999936	
3919														-0.119447	-0.131982	9.776406	-0.824053	-0.566453	-0.008214	0.566404	-0.824092	0.007633	-0.011092	0.001637	0.999937	
3920														-0.227076	-0.055439	9.758799	-0.817819	-0.575416	-0.008257	0.575369	-0.817859	0.007540	-0.011092	0.001416	0.999937	
3921														-0.212400	0.034306	9.741930	-0.811798	-0.583879	-0.008315	0.583831	-0.811839	0.007610	-0.011193	0.001323	0.999936	
3922														-0.024165	0.110297	9.756405	-0.805902	-0.591991	-0.008239	0.591943	-0.805943	0.007662	-0.011176	0.001298	0.999937	
3923														-0.176958	0.269667	9.750900	-0.800012	-0.599928	-0.008165	0.599880	-0.800053	0.007715	-0.011161	0.001274	0.999937	
3924														-0.281619	0.353280	9.762387	-0.794164	-0.607651	-0.008031	0.607603	-0.794204	0.007705	-0.011060	0.001239	0.999938	
3925														-0.201396	0.184790	9.738125	-0.788410	-0.615098	-0.007989	0.615050	-0.788450	0.007719	-0.011047	0.001172	0.999938	
3926														-0.099832	0.247083	9.766873	-0.782638	-0.622427	-0.007926	0.622380	-0.782677	0.007696	-0.010994	0.001090	0.999939	
3927														-0.120491	0.122831	9.799104	-0.776848	-0.629639	-0.007871	0.629593	-0.776887	0.007708	-0.010968	0.001032	0.999939	
3928														-0.239278	-0.088750	9.773873	-0.770971	-0.636823	-0.007755	0.636778	-0.771009	0.007653	-0.010853	0.000963	0.999941	
3929														-0.079415	-0.158577	9.733337	-0.764981	-0.644007	-0.007750	0.643962	-0.765020	0.007648	-0.010854	0.000860	0.999941	
3930														-0.074609	-0.002869	9.744118	-0.758922	-0.651136	-0.007718	0.651091	-0.758961	0.007682	-0.010860	0.000805	0.999941	
3931														-0.093431	0.151639	9.769335	-0.752928	-0.658058	-0.007762	0.658014	-0.752967	0.007580	-0.010833	0.000600	0.999941	
3932														-0.056539	0.214640	9.753521	-0.746814	-0.664988	-0.007704	0.664946	-0.746854	0.007496	-0.010738	0.000475	0.999942	
3933														-0.167868	0.154187	9.768398	-0.740645	-0.671852	-0.007744	0.671811	-0.740685	0.007410	-0.010714	0.000286	0.999943	
3934														-0.031767	-0.117549	9.732692	-0.734343	-0.678736	-0.007639	0.678695	-0.734382	0.007423	-0.010648	0.000267	0.999943	
3935														-0.073336	0.013191	9.714323	-0.727788	-0.685759	-0.007698	0.685720	-0.727828	0.007361	-0.010651	0.000078	0.999943	
3936														-0.101173	0.074570	9.815048	-0.720976	-0.692918	-0.007634	0.692880	-0.721016	0.007323	-0.010578	-0.000010	0.999944	
3937														-0.306081	-0.045076	9.727521	-0.714125	-0.699976	-0.007615	0.699938	-0.714166	0.007303	-0.010550	-0.000115	0.999944	
3938														-0.323460	-0.069906	9.757164	-0.707705	-0.706468	-0.007527	0.706430	-0.707745	0.007273	-0.010465	-0.000171	0.999945	
3939														-0.125548	-0.058545	9.715344	-0.701039	-0.713083	-0.007605	0.713046	-0.701080	0.007268	-0.010514	-0.000328	0.999945	
3940														0.002899	0.064692	9.787266	-0.693901	-0.720030	-0.007632	0.719993	-0.693943	0.007297	-0.010550	-0.000431	0.999944	
3941														-0.036789	0.255603	9.767545	-0.686169	-0.727400	-0.007849	0.727367	-0.686213	0.006941	-0.010435	-0.000947	0.999945	
3942														-0.066350	0.038339	9.728301	-0.678352	-0.734696	-0.007777	0.734664	-0.678396	0.006954	-0.010385	-0.000996	0.999946	
3943														-0.105851	-0.041023	9.773581	-0.670360	-0.741996	-0.007779	0.741964	-0.670404	0.006980	-0.010394	-0.001092	0.999945	
3944														0.015788	-0.125891	9.762510	-0.661952	-0.749505	-0.007819	0.749475	-0.661997	0.006838	-0.010301	-0.001333	0.999946	
3945														-0.245872	-0.018854	9.785700	-0.653560	-0.756835	-0.007758	0.756806	-0.653605	0.006758	-0.010185	-0.001455	0.999947	
3946														-0.138239	-0.022176	9.728610	-0.645374	-0.763828	-0.007742	0.763801	-0.645418	0.006662	-0.010086	-0.001614	0.999948	
3947														0.760665	-0.113358	9.772732	-0.637313	-0.770564	-0.007969	0.770537	-0.637360	0.006711	-0.010250	-0.001863	0.999946	
3948														0.360094	-0.151879	9.767834	-0.630021	-0.776481	-0.007900	0.776456	-0.630068	0.006495	-0.010020	-0.002041	0.999948	
3949														-0.040477	-0.190400	9.762936	-0.622730	-0.782397	-0.007832	0.782375	-0.622776	0.006278	-0.009790	-0.002218	0.999950	
3950														-0.129312	-0.135039	9.760324	-0.615134	-0.788384	-0.007819	0.788363	-0.615180	0.006184	-0.009686	-0.002360	0.999950	
3951														-0.008554	-0.224046	9.720038	-0.608069	-0.793845	-0.007848	0.793824	-0.608115	0.006257	-0.009739	-0.002425	0.999950	
3952														-0.266474	-0.056365	9.756500	-0.601419	-0.798895	-0.007837	0.798875	-0.601465	0.006243	-0.009701	-0.002506	0.999950	
3953														-0.533813	0.362844	9.801966	-0.594044	-0.804394	-0.007905	0.804374	-0.594090	0.006250	-0.009724	-0.002646	0.999949	
3954														-0.449586	0.207905	9.703963	-0.586346	-0.810023	-0.007813	0.810004	-0.586392	0.006156	-0.009568	-0.002719	0.999951	
3955														-0.512756	-0.061920	9.738015	-0.578486	-0.815655	-0.007812	0.815636	-0.578532	0.006236	-0.009606	-0.002764	0.999950	
3956														-0.542543	0.033109	9.764753	-0.570567	-0.821215	-0.007738	0.821197	-0.570612	0.006101	-0.009425	-0.002873	0.999951	
3957														-0.218468	0.240701	9.794686	-0.563067	-0.826375	-0.007712	0.826358	-0.563112	0.006103	-0.009386	-0.002936	0.999952	
3958														-0.161971	-0.069011	9.787443	-0.556648	-0.830714	-0.007575	0.830697	-0.556692	0.005986	-0.009189	-0.002960	0.999953	
3959														0.044373	-0.188741	9.719918	-0.550542	-0.834773	-0.007527	0.834758	-0.550585	0.005909	-0.009077	-0.003030	0.999954	
3960														-0.263377	0.111784	9.738077	-0.544533	-0.838709	-0.007187	0.838694	-0.544572	0.005781	-0.008763	-0.002880	0.999957	
3961														-0.628379	0.467282	9.783536	-0.538041	-0.842890	-0.006895	0.842876	-0.538078	0.005638	-0.008463	-0.002778	0.999960	
3962														-0.029708	0.083252	9.683732	-0.531452	-0.847061	-0.006765	0.847046	-0.531488	0.005688	-0.008413	-0.002707	0.999961	
3963														0.612207	-0.371339	9.791379	-0.525789	-0.850590	-0.006593	0.850574	-0.525824	0.005751	-0.008359	-0.002584	0.999962	
3964														-0.198973	0.001477	9.726788	-0.519482	-0.854455	-0.006686	0.854439	-0.519518	0.005908	-0.008522	-0.002644	0.999960	
3965														0.293481	-0.041475	9.779558	-0.513452	-0.858093	-0.006610	0.858077	-0.513488	0.005897	-0.008455	-0.002644	0.999961	
3966														0.212349	-0.115501	9.750587	-0.507777	-0.861463	-0.006616	0.861445	-0.507814	0.006114	-0.008627	-0.002594	0.999959	
3967														0.358074	-0.143817	9.782953	-0.502713	-0.864428	-0.006628	0.864411	-0.502750	0.006062	-0.008573	-0.002682	0.999960	
3968														-0.326646	-0.187350	9.713904	-0.498503	-0.866862	-0.006715	0.866845	-0.498540	0.006097	-0.008633	-0.002781	0.999959	
3969														-0.521610	0.258136	9.759889	-0.492889	-0.870067	-0.006659	0.870050	-0.492926	0.006065	-0.008559	-0.002804	0.999959	
3970														-0.925920	0.625357	9.760038	-0.486541	-0.873632	-0.006640	0.873616	-0.486578	0.006102	-0.008561	-0.002832	0.999959	
3971														0.146945	0.550990	9.750420	-0.479405	-0.877569	-0.006611	0.877552	-0.479442	0.006102	-0.008525	-0.002876	0.999960	
3972														0.275453	-0.316534	9.741381	-0.473669	-0.880679	-0.006429	0.880662	-0.473705	0.006177	-0.008486	-0.002736	0.999960	
3973														1.381773	-0.909955	9.758292	-0.468360	-0.883514	-0.006403	0.883496	-0.468396	0.006296	-0.008562	-0.002708	0.999960	
3974														0.753224	-0.254794	9.763241	-0.462912	-0.886381	-0.006384	0.886363	-0.462948	0.006334	-0.008570	-0.002726	0.999960	
3975														0.103924	-0.322307	9.723998	-0.456395	-0.889754	-0.006505	0.889736	-0.456432	0.006360	-0.008628	-0.002885	0.999959	
3976														-0.127752	-0.360701	9.793909	-0.450299	-0.892854	-0.006451	0.892837	-0.450336	0.006310	-0.008538	-0.002918	0.999959	
3977														-0.113564	-0.070894	9.729568	-0.444483	-0.895764	-0.006456	0.895747	-0.444520	0.006257	-0.008474	-0.003001	0.999960	
3978														-0.377269	-0.118702	9.755112	-0.438750	-0.898587	-0.006396	0.898571	-0.438786	0.006133	-0.008318	-0.003056	0.999961	
3979														-0.705983	0.269906	9.726692	-0.433374	-0.901192	-0.006348	0.901177	-0.433409	0.006032	-0.008187	-0.003107	0.999962	
3980														-0.059354	0.175194	9.813420	-0.428276	-0.903627	-0.006229	0.903612	-0.428310	0.005978	-0.008070	-0.003068	0.999963	
3981														-0.008048	0.327308	9.737999	-0.423403	-0.905921	-0.006179	0.905906	-0.423437	0.005962	-0.008017	-0.003073	0.999963	
3982														0.079080	-0.070891	9.703630	-0.417567	-0.908625	-0.006208	0.908612	-0.417601	0.005869	-0.007925	-0.003190	0.999964	
3983														0.245324	-0.320840	9.770242	-0.411401	-0.911433	-0.006159	0.911420	-0.411435	0.005909	-0.007920	-0.003183	0.999964	
3984														0.075446	-0.127664	9.778000	-0.405443	-0.914100	-0.006131	0.914086	-0.405477	0.006012	-0.007982	-0.003166	0.999963	
3985														-0.107436	-0.178150	9.761041	-0.399557	-0.916689	-0.005983	0.916674	-0.399590	0.006048	-0.007935	-0.003068	0.999964	
3986														-0.030044	-0.338917	9.721680	-0.393712	-0.919213	-0.006128	0.919200	-0.393746	0.006007	-0.007934	-0.003268	0.999963	
3987														-0.095527	-0.091359	9.759472	-0.387974	-0.921650	-0.006190	0.921635	-0.388009	0.006111	-0.008034	-0.003334	0.999962	
3988														-0.061503	0.355377	9.765981	-0.382091	-0.924104	-0.006138	0.924091	-0.382125	0.006043	-0.007930	-0.003363	0.999963	
3989														-0.046820	0.472936	9.763966	-0.376417	-0.926431	-0.006027	0.926416	-0.376451	0.006169	-0.007984	-0.003262	0.999963	
3990														-0.024845	-0.003664	9.729795	-0.370744	-0.928715	-0.006039	0.928700	-0.370779	0.006207	-0.008004	-0.003307	0.999963	
3991														0.034676	-0.350796	9.767080	-0.365151	-0.930929	-0.005899	0.930913	-0.365185	0.006351	-0.008067	-0.003173	0.999962	
3992														-0.137649	-0.381512	9.749703	-0.359662	-0.933063	-0.005983	0.933048	-0.359697	0.006361	-0.008087	-0.003294	0.999962	
3993														-0.101569	-0.118121	9.789200	-0.354165	-0.935164	-0.005891	0.935148	-0.354199	0.006426	-0.008096	-0.003233	0.999962	
3994														-0.178359	-0.130847	9.743953	-0.348971	-0.937114	-0.006050	0.937098	-0.349006	0.006412	-0.008120	-0.003432	0.999961	
3995														-0.095871	-0.225030	9.791362	-0.344579	-0.938739	-0.005826	0.938722	-0.344613	0.006521	-0.008129	-0.003222	0.999962	
3996														0.049313	-0.122069	9.777634	-0.340665	-0.940167	-0.005782	0.940150	-0.340699	0.006524	-0.008103	-0.003213	0.999962	
3997														0.067678	-0.051458	9.703363	-0.336867	-0.941535	-0.005782	0.941518	-0.336901	0.006518	-0.008084	-0.003248	0.999962	
3998														0.021804	0.020513	9.759695	-0.332965	-0.942922	-0.005739	0.942904	-0.332999	0.006665	-0.008196	-0.003192	0.999961	
3999														0.011483	-0.156537	9.762963	-0.329537	-0.944125	-0.005756	0.944106	-0.329572	0.006813	-0.008329	-0.003189	0.999960	
4000														0.129961	-0.150397	9.780044	-0.326655	-0.945127	-0.005595	0.945104	-0.326690	0.007262	-0.008692	-0.002916	0.999958	
4001														0.847592	-0.138839	9.736586	-0.325420	-0.945551	-0.005879	0.945523	-0.325460	0.007878	-0.009362	-0.002995	0.999952	
4002														-0.414572	-0.139553	9.739165	-0.324749	-0.945783	-0.005767	0.945753	-0.324787	0.007993	-0.009433	-0.002858	0.999951	
4003														-0.485627	-0.123466	9.766674	-0.323700	-0.946142	-0.005714	0.946115	-0.323738	0.007716	-0.009150	-0.002909	0.999954	
4004														-0.121238	-0.320243	9.763681	-0.323526	-0.946202	-0.005742	0.946175	-0.323564	0.007738	-0.009180	-0.002929	0.999954	
4005														-0.026271	-0.370625	9.737384	-0.323598	-0.946177	-0.005758	0.946151	-0.323635	0.007699	-0.009148	-0.002957	0.999954	
4006														-0.062824	-0.047997	9.744909	-0.323569	-0.946187	-0.005706	0.946161	-0.323606	0.007653	-0.009087	-0.002922	0.999954	
4007														-0.103362	-0.098253	9.759710	-0.323590	-0.946181	-0.005629	0.946154	-0.323626	0.007644	-0.009055	-0.002852	0.999955	
4008														-0.103525	-0.097555	9.774358	-0.323446	-0.946230	-0.005665	0.946203	-0.323483	0.007654	-0.009075	-0.002885	0.999955	
4009														-0.105752	-0.037097	9.758471	-0.323353	-0.946262	-0.005619	0.946234	-0.323389	0.007735	-0.009137	-0.002816	0.999954	
4010														-0.066005	-0.057604	9.759798	-0.323077	-0.946359	-0.005167	0.946329	-0.323110	0.007891	-0.009138	-0.002340	0.999956	
4011														-0.134258	-0.024040	9.743120	-0.322794	-0.946457	-0.004799	0.946425	-0.322823	0.008027	-0.009146	-0.001950	0.999956	
4012														-0.088473	-0.015816	9.758634	-0.322577	-0.946532	-0.004695	0.946499	-0.322606	0.008055	-0.009139	-0.001845	0.999957	
4013														-0.056225	-0.006394	9.759137	-0.322172	-0.946670	-0.004590	0.946638	-0.322199	0.007995	-0.009048	-0.001769	0.999958	
4014														0.005758	0.071560	9.744162	-0.320839	-0.947123	-0.004449	0.947091	-0.320866	0.008022	-0.009025	-0.001640	0.999958	
4015														-0.220548	-0.073865	9.771802	-0.319265	-0.947656	-0.004346	0.947621	-0.319291	0.008181	-0.009140	-0.001507	0.999957	
4016														-0.217301	0.014974	9.740681	-0.317503	-0.948247	-0.004399	0.948212	-0.317529	0.008257	-0.009226	-0.001550	0.999956	
4017														-0.232622	-0.057502	9.741876	-0.315241	-0.949001	-0.004491	0.948966	-0.315269	0.008289	-0.009282	-0.001649	0.999956	
4018														-0.081120	0.030476	9.757905	-0.313089	-0.949712	-0.004615	0.949677	-0.313118	0.008360	-0.009385	-0.001765	0.999954	
4019														-0.067200	0.026705	9.743630	-0.311008	-0.950396	-0.004667	0.950361	-0.311037	0.008403	-0.009438	-0.001822	0.999954	
4020														-0.038925	-0.053230	9.745943	-0.309269	-0.950963	-0.004593	0.950927	-0.309298	0.008508	-0.009512	-0.001737	0.999953	
4021														-0.116431	-0.067528	9.729921	-0.307896	-0.951409	-0.004595	0.951372	-0.307925	0.008534	-0.009534	-0.001744	0.999953	
4022														-0.145859	-0.061364	9.758458	-0.306582	-0.951833	-0.004627	0.951796	-0.306612	0.008544	-0.009551	-0.001785	0.999953	
4023														0.078705	-0.060310	9.748688	-0.305695	-0.952118	-0.004623	0.952082	-0.305724	0.008512	-0.009517	-0.001799	0.999953	
4024														-0.143218	0.013701	9.742274	-0.305514	-0.952178	-0.004346	0.952145	-0.305540	0.008103	-0.009043	-0.001662	0.999958	
4025														-0.052294	0.012986	9.758899	-0.305395	-0.952216	-0.004294	0.952182	-0.305421	0.008165	-0.009086	-0.001596	0.999957	
4026														-0.133686	-0.014745	9.772437	-0.305653	-0.952134	-0.004208	0.952098	-0.305678	0.008348	-0.009235	-0.001455	0.999956	
4027														-0.188125	0.015049	9.741421	-0.305539	-0.952173	-0.003401	0.952135	-0.305557	0.008541	-0.009172	-0.000628	0.999958	
4028														-0.000544	-0.090604	9.777201	-0.305399	-0.952219	-0.003342	0.952181	-0.305417	0.008471	-0.009087	-0.000595	0.999959	
4029														-0.116929	-0.008330	9.743556	-0.304955	-0.952361	-0.003275	0.952325	-0.304972	0.008327	-0.008929	-0.000579	0.999960	
4030														-0.072268	-0.016082	9.744674	-0.304491	-0.952510	-0.003181	0.952474	-0.304508	0.008218	-0.008796	-0.000528	0.999961	
4031														-0.090972	-0.041397	9.744850	-0.304326	-0.952563	-0.003110	0.952528	-0.304341	0.008137	-0.008698	-0.000486	0.999962	
4032														-0.070773	-0.014584	9.759330	-0.304167	-0.952614	-0.003099	0.952579	-0.304183	0.008134	-0.008691	-0.000478	0.999962	
4033														-0.097099	0.005913	9.772977	-0.304105	-0.952633	-0.003107	0.952598	-0.304121	0.008160	-0.008719	-0.000478	0.999962	
4034														-0.114757	-0.005559	9.772874	-0.304003	-0.952666	-0.003149	0.952630	-0.304019	0.008247	-0.008814	-0.000493	0.999961	
4035														-0.103376	-0.023489	9.744213	-0.303886	-0.952703	-0.003233	0.952667	-0.303903	0.008324	-0.008912	-0.000551	0.999960	
4036														-0.083525	0.002173	9.729402	-0.303816	-0.952725	-0.003223	0.952689	-0.303832	0.008321	-0.008907	-0.000543	0.999960	
4037														-0.086827	-0.011292	9.758952	-0.303708	-0.952760	-0.003226	0.952724	-0.303724	0.008327	-0.008914	-0.000545	0.999960	
4038														-0.089564	-0.025464	9.759220	-0.303622	-0.952787	-0.003229	0.952751	-0.303639	0.008333	-0.008920	-0.000547	0.999960	
4039														-0.089229	-0.025586	9.744579	-0.303534	-0.952815	-0.003232	0.952779	-0.303551	0.008338	-0.008926	-0.000549	0.999960	
4040														-0.086282	-0.010955	9.744314	-0.303468	-0.952836	-0.003218	0.952800	-0.303484	0.008315	-0.008899	-0.000543	0.999960	
4041														-0.098029	0.006761	9.758322	-0.303384	-0.952863	-0.003221	0.952827	-0.303401	0.008320	-0.008905	-0.000545	0.999960	
4042														-0.114838	-0.004992	9.743583	-0.303279	-0.952896	-0.003224	0.952860	-0.303295	0.008326	-0.008912	-0.000547	0.999960	
4043														-0.089263	-0.023968	9.773869	-0.303161	-0.952934	-0.003209	0.952898	-0.303177	0.008303	-0.008886	-0.000541	0.999960	
4044														-0.085959	-0.009727	9.758961	-0.303016	-0.952980	-0.003220	0.952944	-0.303033	0.008297	-0.008883	-0.000554	0.999960	
4045														-0.085830	-0.009526	9.758963	-0.302936	-0.953005	-0.003210	0.952969	-0.302953	0.008295	-0.008878	-0.000546	0.999960	
4046														-0.085750	-0.009269	9.758964	-0.302863	-0.953029	-0.003213	0.952993	-0.302879	0.008301	-0.008884	-0.000548	0.999960	
4047														-0.100313	-0.005984	9.773241	-0.302711	-0.953077	-0.003211	0.953041	-0.302728	0.008288	-0.008871	-0.000551	0.999961	
4048														-0.085743	-0.008486	9.773608	-0.302668	-0.953091	-0.003201	0.953055	-0.302684	0.008284	-0.008864	-0.000544	0.999961	
4049														-0.100027	-0.005269	9.773244	-0.302621	-0.953106	-0.003163	0.953070	-0.302637	0.008299	-0.008867	-0.000503	0.999961	
4050														-0.098859	-0.006183	9.714678	-0.302518	-0.953139	-0.003170	0.953102	-0.302534	0.008327	-0.008895	-0.000503	0.999960	
4051														-0.100182	-0.004724	9.773243	-0.302498	-0.953145	-0.003195	0.953108	-0.302515	0.008326	-0.008902	-0.000527	0.999960	
4052														-0.085668	-0.007272	9.773610	-0.302352	-0.953191	-0.003172	0.953155	-0.302368	0.008316	-0.008886	-0.000509	0.999960	
4053														-0.084903	-0.007535	9.744329	-0.302281	-0.953214	-0.003154	0.953177	-0.302297	0.008326	-0.008890	-0.000489	0.999960	
4054														-0.102507	-0.018089	9.773522	-0.302196	-0.953241	-0.003131	0.953205	-0.302211	0.008315	-0.008872	-0.000472	0.999961	
4055														-0.101991	-0.017969	9.758883	-0.302135	-0.953260	-0.003100	0.953224	-0.302150	0.008316	-0.008864	-0.000443	0.999961	
4056														-0.102263	-0.017316	9.773526	-0.302046	-0.953288	-0.003116	0.953252	-0.302062	0.008330	-0.008882	-0.000455	0.999960	
4057														-0.115541	-0.015340	9.729239	-0.302024	-0.953295	-0.003090	0.953259	-0.302039	0.008297	-0.008842	-0.000439	0.999961	
4058														-0.083979	-0.005822	9.744338	-0.301964	-0.953314	-0.003088	0.953278	-0.301980	0.008280	-0.008826	-0.000444	0.999961	
4059														-0.101443	-0.016856	9.758891	-0.301932	-0.953325	-0.003088	0.953288	-0.301947	0.008318	-0.008863	-0.000432	0.999961	
4060														-0.098708	-0.002099	9.758615	-0.301841	-0.953353	-0.003066	0.953317	-0.301856	0.008309	-0.008846	-0.000415	0.999961	
4061														-0.100909	-0.016530	9.744253	-0.301772	-0.953375	-0.003064	0.953339	-0.301787	0.008293	-0.008831	-0.000419	0.999961	
4062														-0.086958	-0.018448	9.773902	-0.301642	-0.953416	-0.003075	0.953380	-0.301657	0.008286	-0.008828	-0.000432	0.999961	
4063														-0.086533	-0.018694	9.759262	-0.301572	-0.953438	-0.003087	0.953403	-0.301587	0.008280	-0.008825	-0.000446	0.999961	
4064														-0.115172	-0.013217	9.743891	-0.301450	-0.953477	-0.003069	0.953440	-0.301466	0.008345	-0.008882	-0.000411	0.999960	
4065														-0.084393	-0.003353	9.773623	-0.301414	-0.953488	-0.003089	0.953452	-0.301430	0.008325	-0.008869	-0.000436	0.999961	
4066														-0.100988	-0.015150	9.758899	-0.301315	-0.953520	-0.003067	0.953483	-0.301331	0.008314	-0.008852	-0.000419	0.999961	
4067														-0.100542	-0.015189	9.744259	-0.301213	-0.953552	-0.003069	0.953516	-0.301228	0.008320	-0.008858	-0.000421	0.999961	
4068														-0.097768	-0.000593	9.743980	-0.301120	-0.953581	-0.003072	0.953545	-0.301135	0.008325	-0.008864	-0.000423	0.999961	
4069														-0.083348	-0.003017	9.744345	-0.301083	-0.953593	-0.003055	0.953557	-0.301098	0.008334	-0.008868	-0.000404	0.999961	
4070														-0.098053	0.000437	9.758621	-0.301036	-0.953608	-0.003050	0.953572	-0.301051	0.008351	-0.008882	-0.000394	0.999960	
4071														-0.086035	-0.016879	9.744627	-0.301005	-0.953617	-0.003070	0.953581	-0.301021	0.008331	-0.008869	-0.000420	0.999961	
4072														-0.114610	-0.011053	9.743900	-0.300913	-0.953647	-0.003018	0.953610	-0.300928	0.008336	-0.008858	-0.000370	0.999961	
4073														-0.097399	0.000853	9.743984	-0.300878	-0.953658	-0.003064	0.953621	-0.300894	0.008333	-0.008869	-0.000415	0.999961	
4074														-0.114411	-0.010702	9.743903	-0.300762	-0.953694	-0.003041	0.953658	-0.300777	0.008323	-0.008852	-0.000397	0.999961	
4075														-0.112140	0.004680	9.772905	-0.300652	-0.953729	-0.003044	0.953693	-0.300668	0.008330	-0.008860	-0.000399	0.999961	
4076														-0.097179	0.001415	9.743986	-0.300560	-0.953758	-0.003060	0.953722	-0.300575	0.008344	-0.008878	-0.000411	0.999961	
4077														-0.085815	-0.015151	9.759275	-0.300513	-0.953773	-0.003051	0.953736	-0.300528	0.008341	-0.008872	-0.000403	0.999961	
4078														-0.099405	-0.012862	9.729630	-0.300421	-0.953802	-0.003049	0.953766	-0.300436	0.008326	-0.008857	-0.000407	0.999961	
4079														-0.083214	0.000099	9.773634	-0.300374	-0.953817	-0.003049	0.953780	-0.300389	0.008364	-0.008894	-0.000396	0.999960	
4080														-0.111440	0.005300	9.743623	-0.300291	-0.953843	-0.003018	0.953806	-0.300306	0.008367	-0.008887	-0.000367	0.999960	
4081														-0.100206	-0.010772	9.773556	-0.300206	-0.953870	-0.003017	0.953833	-0.300221	0.008351	-0.008871	-0.000371	0.999961	
4082														-0.099165	-0.011618	9.729634	-0.300188	-0.953875	-0.003021	0.953839	-0.300203	0.008356	-0.008877	-0.000373	0.999961	
4083														-0.097048	0.003839	9.758631	-0.300114	-0.953899	-0.002995	0.953862	-0.300129	0.008378	-0.008891	-0.000342	0.999960	
4084														-0.099437	-0.010479	9.744277	-0.300016	-0.953930	-0.002985	0.953893	-0.300031	0.008376	-0.008886	-0.000334	0.999960	
4085														-0.084911	-0.012905	9.744643	-0.299941	-0.953953	-0.002975	0.953917	-0.299955	0.008373	-0.008880	-0.000327	0.999961	
4086														-0.099311	-0.009587	9.758923	-0.299879	-0.953972	-0.002970	0.953936	-0.299894	0.008337	-0.008844	-0.000333	0.999961	
4087														-0.084597	-0.012457	9.744646	-0.299803	-0.953997	-0.002982	0.953960	-0.299818	0.008385	-0.008893	-0.000331	0.999960	
4088														-0.085019	-0.011724	9.759286	-0.299766	-0.954008	-0.002952	0.953971	-0.299780	0.008386	-0.008885	-0.000302	0.999960	
4089														-0.096569	0.005859	9.758634	-0.299645	-0.954046	-0.002933	0.954009	-0.299659	0.008397	-0.008890	-0.000282	0.999960	
4090														-0.084786	-0.011056	9.759289	-0.299613	-0.954056	-0.002954	0.954020	-0.299627	0.008375	-0.008875	-0.000308	0.999961	
4091														-0.099368	-0.007986	9.773568	-0.299559	-0.954073	-0.002978	0.954036	-0.299574	0.008375	-0.008883	-0.000332	0.999960	
4092														-0.098748	-0.008586	9.744286	-0.299538	-0.954080	-0.002982	0.954043	-0.299553	0.008380	-0.008888	-0.000335	0.999960	
4093														-0.098375	-0.008787	9.729645	-0.299480	-0.954098	-0.002994	0.954061	-0.299494	0.008373	-0.008885	-0.000349	0.999960	
4094														-0.099470	-0.007280	9.788211	-0.299403	-0.954122	-0.003005	0.954085	-0.299418	0.008366	-0.008882	-0.000362	0.999960	
4095														-0.096610	0.007309	9.787922	-0.299344	-0.954141	-0.002996	0.954104	-0.299359	0.008365	-0.008878	-0.000355	0.999961	
4096														-0.083097	-0.011508	9.700730	-0.299269	-0.954164	-0.002970	0.954127	-0.299284	0.008387	-0.008892	-0.000324	0.999960	
4097														-0.066698	0.001245	9.730083	-0.299176	-0.954193	-0.002978	0.954156	-0.299191	0.008414	-0.008919	-0.000324	0.999960	
4098														-0.113594	-0.003791	9.773207	-0.299140	-0.954205	-0.003002	0.954168	-0.299155	0.008414	-0.008927	-0.000348	0.999960	
4099														-0.115706	-0.018785	9.744217	-0.299075	-0.954225	-0.003006	0.954188	-0.299090	0.008420	-0.008933	-0.000350	0.999960	
4100														-0.070202	-0.012097	9.759657	-0.299052	-0.954232	-0.003035	0.954195	-0.299067	0.008440	-0.008962	-0.000372	0.999960	
4101														-0.084633	-0.009316	9.759292	-0.299013	-0.954244	-0.003047	0.954207	-0.299029	0.008432	-0.008957	-0.000386	0.999960	
4102														-0.110715	0.010681	9.758271	-0.298969	-0.954258	-0.003055	0.954220	-0.298985	0.008458	-0.008985	-0.000387	0.999960	
4103														-0.079314	0.001722	9.612586	-0.298910	-0.954276	-0.003114	0.954238	-0.298926	0.008518	-0.009059	-0.000426	0.999959	
4104														-0.072614	-0.010392	9.832855	-0.298877	-0.954286	-0.003194	0.954249	-0.298893	0.008517	-0.009083	-0.000502	0.999959	
4105														-0.168486	-0.017730	10.036224	-0.298795	-0.954312	-0.003125	0.954275	-0.298811	0.008494	-0.009039	-0.000444	0.999959	
4106														-0.116862	0.021474	9.479432	-0.298717	-0.954337	-0.003102	0.954299	-0.298732	0.008481	-0.009021	-0.000427	0.999959	
4107														-0.001049	-0.039703	9.747131	-0.298602	-0.954373	-0.003165	0.954335	-0.298618	0.008509	-0.009066	-0.000480	0.999959	
4108														-0.058938	-0.011308	9.877145	-0.298510	-0.954401	-0.003185	0.954363	-0.298527	0.008545	-0.009106	-0.000489	0.999958	
4109														-0.199127	0.011325	9.683156	-0.298484	-0.954409	-0.003215	0.954371	-0.298501	0.008566	-0.009135	-0.000511	0.999958	
4110														-0.104571	-0.018060	9.847058	-0.298414	-0.954431	-0.003218	0.954393	-0.298431	0.008571	-0.009141	-0.000514	0.999958	
4111														0.003612	-0.010518	9.746545	-0.298368	-0.954445	-0.003218	0.954407	-0.298385	0.008610	-0.009178	-0.000502	0.999958	
4112														-0.127887	-0.001296	9.699619	-0.298289	-0.954470	-0.003234	0.954431	-0.298306	0.008624	-0.009196	-0.000514	0.999958	
4113														-0.160964	-0.008411	9.772385	-0.298308	-0.954464	-0.003260	0.954425	-0.298326	0.008624	-0.009204	-0.000538	0.999957	
4114														-0.075107	-0.023794	9.803866	-0.298225	-0.954490	-0.003237	0.954451	-0.298242	0.008612	-0.009186	-0.000521	0.999958	
4115														-0.068298	0.003863	9.744715	-0.298149	-0.954514	-0.003240	0.954475	-0.298166	0.008618	-0.009192	-0.000523	0.999958	
4116														-0.116955	-0.016715	9.744206	-0.298041	-0.954547	-0.003277	0.954509	-0.298059	0.008628	-0.009213	-0.000556	0.999957	
4117														-0.104430	-0.017119	9.832417	-0.298010	-0.954557	-0.003259	0.954518	-0.298028	0.008638	-0.009217	-0.000537	0.999957	
4118														-0.085139	-0.007531	9.730003	-0.297952	-0.954575	-0.003242	0.954536	-0.297969	0.008647	-0.009221	-0.000518	0.999957	
4119														-0.114087	-0.001441	9.743913	-0.297897	-0.954593	-0.003241	0.954554	-0.297914	0.008632	-0.009206	-0.000523	0.999957	
4120														-0.114615	-0.000466	9.773195	-0.297793	-0.954625	-0.003236	0.954586	-0.297810	0.008651	-0.009222	-0.000513	0.999957	
4121														-0.116433	-0.015565	9.729570	-0.297751	-0.954638	-0.003218	0.954599	-0.297768	0.008661	-0.009226	-0.000494	0.999957	
4122														-0.115987	-0.015622	9.714931	-0.297641	-0.954672	-0.003217	0.954633	-0.297658	0.008644	-0.009210	-0.000498	0.999957	
4123														-0.102882	-0.016340	9.788505	-0.297645	-0.954671	-0.003216	0.954632	-0.297662	0.008627	-0.009193	-0.000503	0.999958	
4124														-0.102401	-0.016558	9.773866	-0.297612	-0.954681	-0.003229	0.954643	-0.297629	0.008618	-0.009189	-0.000517	0.999958	
4125														-0.116311	-0.014067	9.758862	-0.297552	-0.954700	-0.003228	0.954661	-0.297569	0.008602	-0.009173	-0.000522	0.999958	
4126														-0.101496	-0.017043	9.744588	-0.297497	-0.954717	-0.003253	0.954679	-0.297514	0.008603	-0.009181	-0.000546	0.999958	
4127														-0.098849	-0.002100	9.758932	-0.297423	-0.954740	-0.003226	0.954702	-0.297440	0.008571	-0.009143	-0.000530	0.999958	
4128														-0.087196	-0.018932	9.759597	-0.297385	-0.954752	-0.003251	0.954713	-0.297402	0.008626	-0.009203	-0.000539	0.999958	
4129														-0.102038	-0.015795	9.773871	-0.297360	-0.954760	-0.003271	0.954721	-0.297377	0.008604	-0.009188	-0.000565	0.999958	
4130														-0.101500	-0.015967	9.759233	-0.297310	-0.954775	-0.003250	0.954737	-0.297328	0.008593	-0.009171	-0.000548	0.999958	
4131														-0.083704	-0.004750	9.730017	-0.297243	-0.954796	-0.003266	0.954758	-0.297260	0.008606	-0.009188	-0.000560	0.999958	
4132														-0.098383	-0.001576	9.744293	-0.297178	-0.954816	-0.003278	0.954778	-0.297196	0.008598	-0.009184	-0.000574	0.999958	
4133														-0.116069	-0.012328	9.773511	-0.297117	-0.954836	-0.003272	0.954797	-0.297134	0.008616	-0.009200	-0.000564	0.999958	
4134														-0.101398	-0.015129	9.759235	-0.297080	-0.954847	-0.003278	0.954808	-0.297097	0.008622	-0.009206	-0.000568	0.999957	
4135														-0.113045	0.002282	9.758569	-0.296999	-0.954872	-0.003260	0.954833	-0.297016	0.008631	-0.009210	-0.000549	0.999957	
4136														-0.086483	-0.017634	9.744963	-0.296983	-0.954877	-0.003267	0.954839	-0.297000	0.008603	-0.009185	-0.000564	0.999958	
4137														-0.097887	-0.000406	9.744298	-0.296952	-0.954887	-0.003266	0.954848	-0.296969	0.008587	-0.009169	-0.000568	0.999958	
4138														-0.100355	-0.014504	9.744604	-0.296886	-0.954907	-0.003245	0.954869	-0.296903	0.008576	-0.009152	-0.000552	0.999958	
4139														-0.100517	-0.013834	9.759246	-0.296817	-0.954929	-0.003248	0.954890	-0.296834	0.008581	-0.009159	-0.000555	0.999958	
4140														-0.114480	-0.011298	9.744243	-0.296787	-0.954938	-0.003247	0.954900	-0.296804	0.008565	-0.009143	-0.000558	0.999958	
4141														-0.100318	-0.013482	9.759249	-0.296726	-0.954957	-0.003263	0.954919	-0.296744	0.008579	-0.009160	-0.000570	0.999958	
4142														-0.112279	0.004188	9.773222	-0.296698	-0.954966	-0.003254	0.954927	-0.296715	0.008575	-0.009154	-0.000564	0.999958	
4143														-0.071379	-0.018472	9.759979	-0.296620	-0.954990	-0.003266	0.954952	-0.296637	0.008568	-0.009152	-0.000577	0.999958	
4144														-0.097036	0.001049	9.744307	-0.296537	-0.955016	-0.003278	0.954978	-0.296554	0.008561	-0.009148	-0.000591	0.999958	
4145														-0.085569	-0.015418	9.759617	-0.296493	-0.955030	-0.003260	0.954991	-0.296510	0.008571	-0.009152	-0.000573	0.999958	
4146														-0.102139	-0.027524	9.730277	-0.296446	-0.955044	-0.003269	0.955005	-0.296464	0.008598	-0.009180	-0.000573	0.999958	
4147														-0.128893	-0.006674	9.758524	-0.296366	-0.955069	-0.003251	0.955030	-0.296383	0.008608	-0.009185	-0.000553	0.999958	
4148														-0.114513	-0.009001	9.758889	-0.296337	-0.955078	-0.003247	0.955039	-0.296354	0.008625	-0.009200	-0.000545	0.999958	
4149														-0.096729	0.002213	9.729666	-0.296256	-0.955103	-0.003245	0.955064	-0.296273	0.008609	-0.009184	-0.000548	0.999958	
4150														-0.098312	-0.004462	9.744461	-0.296222	-0.955113	-0.003249	0.955075	-0.296240	0.008614	-0.009190	-0.000551	0.999958	
4151														-0.099896	-0.011137	9.759256	-0.296189	-0.955124	-0.003253	0.955085	-0.296206	0.008620	-0.009196	-0.000554	0.999958	
4152														-0.099907	-0.010765	9.759256	-0.296160	-0.955133	-0.003250	0.955094	-0.296178	0.008636	-0.009211	-0.000546	0.999957	
4153														-0.096721	0.003269	9.729665	-0.296149	-0.955136	-0.003238	0.955097	-0.296166	0.008667	-0.009237	-0.000526	0.999957	
4154														-0.100412	-0.009793	9.773896	-0.296143	-0.955138	-0.003262	0.955099	-0.296161	0.008666	-0.009244	-0.000549	0.999957	
4155														-0.114742	-0.007051	9.773532	-0.296009	-0.955180	-0.003273	0.955141	-0.296026	0.008660	-0.009241	-0.000563	0.999957	
4156														-0.099418	-0.010649	9.729975	-0.295986	-0.955187	-0.003269	0.955148	-0.296003	0.008677	-0.009256	-0.000554	0.999957	
4157														-0.111541	0.007085	9.743940	-0.295938	-0.955202	-0.003278	0.955162	-0.295955	0.008704	-0.009284	-0.000556	0.999957	
4158														-0.083494	0.002616	9.773949	-0.295893	-0.955215	-0.003294	0.955176	-0.295911	0.008717	-0.009301	-0.000567	0.999957	
4159														-0.102915	-0.023699	9.759565	-0.295833	-0.955234	-0.003294	0.955194	-0.295851	0.008702	-0.009287	-0.000572	0.999957	
4160														-0.099851	-0.009630	9.744615	-0.295757	-0.955257	-0.003331	0.955218	-0.295775	0.008711	-0.009306	-0.000605	0.999957	
4161														-0.114684	-0.006395	9.758889	-0.295708	-0.955273	-0.003316	0.955233	-0.295726	0.008741	-0.009331	-0.000583	0.999956	
4162														-0.103259	-0.022793	9.774206	-0.295733	-0.955265	-0.003317	0.955225	-0.295751	0.008725	-0.009316	-0.000588	0.999956	
4163														-0.103141	-0.022697	9.774208	-0.295652	-0.955290	-0.003340	0.955250	-0.295670	0.008726	-0.009323	-0.000611	0.999956	
4164														-0.112171	0.008943	9.773220	-0.295574	-0.955314	-0.003336	0.955274	-0.295592	0.008744	-0.009339	-0.000603	0.999956	
4165														-0.100183	-0.008142	9.759256	-0.295534	-0.955326	-0.003321	0.955287	-0.295552	0.008753	-0.009343	-0.000585	0.999956	
4166														-0.100047	-0.007837	9.759258	-0.295492	-0.955340	-0.003318	0.955300	-0.295510	0.008739	-0.009329	-0.000588	0.999956	
4167														-0.114409	-0.004594	9.773537	-0.295474	-0.955345	-0.003313	0.955306	-0.295491	0.008702	-0.009292	-0.000594	0.999957	
4168														-0.099519	-0.007304	9.759264	-0.295431	-0.955358	-0.003286	0.955319	-0.295449	0.008724	-0.009305	-0.000562	0.999957	
4169														-0.102132	-0.021442	9.759578	-0.295397	-0.955369	-0.003307	0.955329	-0.295415	0.008702	-0.009291	-0.000588	0.999957	
4170														-0.087605	-0.023929	9.759945	-0.295332	-0.955389	-0.003290	0.955349	-0.295350	0.008712	-0.009295	-0.000571	0.999957	
4171														-0.089557	-0.038771	9.730980	-0.295307	-0.955397	-0.003291	0.955357	-0.295324	0.008695	-0.009279	-0.000577	0.999957	
4172														-0.113318	-0.003561	9.758906	-0.295303	-0.955398	-0.003268	0.955359	-0.295321	0.008682	-0.009259	-0.000558	0.999957	
4173														-0.084099	-0.009109	9.744995	-0.295228	-0.955421	-0.003293	0.955382	-0.295246	0.008684	-0.009269	-0.000583	0.999957	
4174														-0.101172	-0.020714	9.744947	-0.295187	-0.955434	-0.003298	0.955395	-0.295204	0.008689	-0.009275	-0.000586	0.999957	
4175														-0.098408	-0.006167	9.744632	-0.295115	-0.955456	-0.003309	0.955417	-0.295133	0.008682	-0.009272	-0.000599	0.999957	
4176														-0.087386	-0.022271	9.774593	-0.295132	-0.955451	-0.003309	0.955411	-0.295150	0.008720	-0.009308	-0.000588	0.999957	
4177														-0.098711	-0.005312	9.759273	-0.295108	-0.955458	-0.003304	0.955419	-0.295126	0.008681	-0.009270	-0.000594	0.999957	
4178														-0.098572	-0.005007	9.759275	-0.295035	-0.955481	-0.003291	0.955441	-0.295052	0.008713	-0.009296	-0.000574	0.999957	
4179														-0.129711	-0.013999	9.744225	-0.294978	-0.955498	-0.003270	0.955459	-0.294996	0.008702	-0.009279	-0.000557	0.999957	
4180														-0.084097	-0.006955	9.759640	-0.294946	-0.955508	-0.003277	0.955468	-0.294964	0.008727	-0.009306	-0.000557	0.999957	
4181														-0.084168	-0.006630	9.759639	-0.294865	-0.955533	-0.003261	0.955493	-0.294883	0.008739	-0.009311	-0.000539	0.999957	
4182														-0.084077	-0.006267	9.759640	-0.294828	-0.955545	-0.003252	0.955505	-0.294846	0.008736	-0.009306	-0.000532	0.999957	
4183														-0.097785	-0.003987	9.729996	-0.294810	-0.955550	-0.003234	0.955511	-0.294827	0.008744	-0.009309	-0.000513	0.999957	
4184														-0.097993	-0.003244	9.744638	-0.294754	-0.955568	-0.003227	0.955528	-0.294772	0.008741	-0.009304	-0.000507	0.999957	
4185														-0.086008	-0.020435	9.730682	-0.294729	-0.955575	-0.003235	0.955535	-0.294747	0.008767	-0.009331	-0.000507	0.999956	
4186														-0.112599	-0.000070	9.744271	-0.294632	-0.955605	-0.003241	0.955565	-0.294649	0.008794	-0.009359	-0.000506	0.999956	
4187														-0.086514	-0.019556	9.745322	-0.294594	-0.955617	-0.003235	0.955577	-0.294611	0.008792	-0.009354	-0.000501	0.999956	
4188														-0.101477	-0.015798	9.774239	-0.294559	-0.955628	-0.003232	0.955587	-0.294577	0.008809	-0.009370	-0.000494	0.999956	
4189														-0.098515	-0.001517	9.759276	-0.294526	-0.955638	-0.003234	0.955597	-0.294543	0.008813	-0.009375	-0.000495	0.999956	
4190														-0.112888	0.001369	9.758912	-0.294510	-0.955643	-0.003237	0.955603	-0.294527	0.008816	-0.009379	-0.000497	0.999956	
4191														-0.112912	0.001635	9.758911	-0.294467	-0.955656	-0.003233	0.955615	-0.294485	0.008835	-0.009395	-0.000488	0.999956	
4192														-0.097874	-0.001391	9.729996	-0.294475	-0.955654	-0.003204	0.955613	-0.294492	0.008834	-0.009386	-0.000460	0.999956	
4193														-0.112490	0.001926	9.744272	-0.294416	-0.955672	-0.003230	0.955631	-0.294433	0.008835	-0.009394	-0.000486	0.999956	
4194														-0.098376	-0.000259	9.759278	-0.294365	-0.955688	-0.003237	0.955647	-0.294382	0.008841	-0.009402	-0.000491	0.999956	
4195														-0.126802	0.004856	9.743908	-0.294378	-0.955684	-0.003249	0.955643	-0.294396	0.008832	-0.009397	-0.000505	0.999956	
4196														-0.098180	0.000094	9.759280	-0.294328	-0.955699	-0.003240	0.955658	-0.294345	0.008829	-0.009392	-0.000498	0.999956	
4197														-0.112197	0.002638	9.744276	-0.294266	-0.955718	-0.003243	0.955677	-0.294283	0.008835	-0.009398	-0.000499	0.999956	
4198														-0.115415	-0.010939	9.773882	-0.294204	-0.955737	-0.003275	0.955696	-0.294222	0.008825	-0.009397	-0.000533	0.999956	
4199														-0.086258	-0.016623	9.759972	-0.294154	-0.955752	-0.003278	0.955712	-0.294172	0.008830	-0.009403	-0.000536	0.999956	
4200														-0.100987	-0.013402	9.774248	-0.294097	-0.955770	-0.003294	0.955729	-0.294115	0.008843	-0.009421	-0.000548	0.999955	
4201														-0.111920	0.003140	9.744279	-0.294020	-0.955794	-0.003267	0.955753	-0.294038	0.008811	-0.009382	-0.000532	0.999956	
4202														-0.109516	0.018135	9.758593	-0.293980	-0.955806	-0.003303	0.955765	-0.293998	0.008855	-0.009435	-0.000554	0.999955	
4203														-0.101028	-0.012867	9.774248	-0.293938	-0.955819	-0.003320	0.955778	-0.293957	0.008869	-0.009453	-0.000566	0.999955	
4204														-0.100165	-0.013869	9.730327	-0.293879	-0.955837	-0.003323	0.955796	-0.293897	0.008875	-0.009460	-0.000568	0.999955	
4205														-0.115436	-0.009826	9.773883	-0.293834	-0.955851	-0.003325	0.955810	-0.293852	0.008879	-0.009464	-0.000569	0.999955	
4206														-0.112434	0.004393	9.758916	-0.293788	-0.955865	-0.003331	0.955824	-0.293806	0.008883	-0.009470	-0.000574	0.999955	
4207														-0.102649	-0.027545	9.730658	-0.293759	-0.955874	-0.003310	0.955833	-0.293777	0.008871	-0.009452	-0.000558	0.999955	
4208														-0.112520	0.005239	9.773559	-0.293686	-0.955896	-0.003348	0.955855	-0.293705	0.008880	-0.009472	-0.000592	0.999955	
4209														-0.129635	-0.006437	9.773521	-0.293658	-0.955905	-0.003352	0.955864	-0.293676	0.008885	-0.009477	-0.000595	0.999955	
4210														-0.103002	-0.026832	9.745298	-0.293600	-0.955922	-0.003381	0.955881	-0.293619	0.008907	-0.009507	-0.000617	0.999955	
4211														-0.118332	-0.022836	9.788854	-0.293574	-0.955930	-0.003373	0.955889	-0.293593	0.008904	-0.009502	-0.000610	0.999955	
4212														-0.097802	0.002764	9.759283	-0.293547	-0.955939	-0.003372	0.955897	-0.293566	0.008887	-0.009485	-0.000615	0.999955	
4213														-0.099999	-0.011882	9.744974	-0.293524	-0.955946	-0.003385	0.955905	-0.293543	0.008878	-0.009481	-0.000629	0.999955	
4214														-0.088442	-0.028354	9.760310	-0.293479	-0.955960	-0.003375	0.955919	-0.293497	0.008876	-0.009476	-0.000621	0.999955	
4215														-0.112107	0.006524	9.773563	-0.293466	-0.955964	-0.003359	0.955923	-0.293484	0.008885	-0.009480	-0.000604	0.999955	
4216														-0.116881	-0.022789	9.744943	-0.293472	-0.955962	-0.003376	0.955920	-0.293491	0.008898	-0.009497	-0.000616	0.999955	
4217														-0.126279	0.009120	9.758557	-0.293407	-0.955982	-0.003399	0.955940	-0.293426	0.008899	-0.009505	-0.000639	0.999955	
4218														-0.102411	-0.025405	9.745308	-0.293351	-0.955999	-0.003421	0.955958	-0.293370	0.008879	-0.009492	-0.000665	0.999955	
4219														-0.087883	-0.027868	9.745675	-0.293347	-0.956000	-0.003404	0.955959	-0.293366	0.008888	-0.009496	-0.000647	0.999955	
4220														-0.082443	0.001398	9.745013	-0.293309	-0.956012	-0.003375	0.955971	-0.293328	0.008889	-0.009488	-0.000619	0.999955	
4221														-0.100371	-0.008847	9.788902	-0.293230	-0.956036	-0.003391	0.955995	-0.293249	0.008903	-0.009506	-0.000631	0.999955	
4222														-0.116933	-0.021258	9.759589	-0.293193	-0.956047	-0.003408	0.956006	-0.293212	0.008918	-0.009525	-0.000644	0.999954	
4223														-0.114300	-0.006697	9.759256	-0.293198	-0.956046	-0.003412	0.956004	-0.293217	0.008921	-0.009529	-0.000646	0.999954	
4224														-0.099716	-0.009109	9.759623	-0.293158	-0.956058	-0.003400	0.956017	-0.293177	0.008898	-0.009504	-0.000642	0.999955	
4225														-0.110772	0.007419	9.729646	-0.293082	-0.956081	-0.003408	0.956040	-0.293101	0.008925	-0.009532	-0.000642	0.999954	
4226														-0.085304	-0.011185	9.759988	-0.293099	-0.956076	-0.003394	0.956035	-0.293118	0.008933	-0.009535	-0.000627	0.999954	
4227														-0.096948	0.006235	9.759290	-0.293064	-0.956087	-0.003385	0.956045	-0.293083	0.008929	-0.009529	-0.000620	0.999954	
4228														-0.087807	-0.025069	9.760325	-0.293020	-0.956100	-0.003410	0.956059	-0.293040	0.008930	-0.009537	-0.000643	0.999954	
4229														-0.101894	-0.022703	9.745321	-0.292995	-0.956108	-0.003413	0.956066	-0.293014	0.008934	-0.009542	-0.000645	0.999954	
4230														-0.099904	-0.007292	9.774265	-0.292948	-0.956122	-0.003420	0.956080	-0.292967	0.008960	-0.009569	-0.000645	0.999954	
4231														-0.116752	-0.019213	9.759595	-0.292902	-0.956136	-0.003424	0.956095	-0.292921	0.008966	-0.009575	-0.000648	0.999954	
4232														-0.102173	-0.021726	9.759962	-0.292876	-0.956144	-0.003433	0.956103	-0.292896	0.008936	-0.009549	-0.000665	0.999954	
4233														-0.099046	-0.007684	9.744988	-0.292860	-0.956149	-0.003456	0.956108	-0.292879	0.008936	-0.009557	-0.000687	0.999954	
4234														-0.084325	-0.010526	9.730713	-0.292847	-0.956153	-0.003438	0.956112	-0.292866	0.008945	-0.009560	-0.000667	0.999954	
4235														-0.113891	-0.003827	9.773906	-0.292795	-0.956169	-0.003456	0.956128	-0.292815	0.008924	-0.009545	-0.000692	0.999954	
4236														-0.101781	-0.021126	9.759968	-0.292758	-0.956180	-0.003451	0.956139	-0.292778	0.008942	-0.009561	-0.000682	0.999954	
4237														-0.102159	-0.020509	9.774607	-0.292719	-0.956192	-0.003467	0.956151	-0.292738	0.008956	-0.009578	-0.000693	0.999954	
4238														-0.101195	-0.021550	9.730688	-0.292651	-0.956213	-0.003466	0.956172	-0.292670	0.008941	-0.009564	-0.000697	0.999954	
4239														-0.113641	-0.003056	9.773909	-0.292648	-0.956214	-0.003458	0.956172	-0.292668	0.008936	-0.009557	-0.000691	0.999954	
4240														-0.101277	-0.020695	9.745331	-0.292561	-0.956241	-0.003477	0.956199	-0.292581	0.008950	-0.009575	-0.000706	0.999954	
4241														-0.118456	-0.031905	9.759948	-0.292588	-0.956232	-0.003475	0.956191	-0.292608	0.008912	-0.009539	-0.000715	0.999954	
4242														-0.086770	-0.022718	9.760340	-0.292528	-0.956251	-0.003500	0.956209	-0.292548	0.008912	-0.009546	-0.000739	0.999954	
4243														-0.086694	-0.022565	9.760341	-0.292493	-0.956261	-0.003491	0.956220	-0.292513	0.008908	-0.009540	-0.000733	0.999954	
4244														-0.098356	-0.005257	9.759639	-0.292931	-0.956128	-0.003301	0.956086	-0.292949	0.009005	-0.009577	-0.000518	0.999954	
4245														-0.115686	-0.016402	9.774256	-0.292895	-0.956139	-0.003305	0.956096	-0.292914	0.009009	-0.009582	-0.000521	0.999954	
4246														-0.100502	-0.019601	9.745342	-0.292839	-0.956156	-0.003290	0.956114	-0.292857	0.008984	-0.009554	-0.000515	0.999954	
4247														-0.115068	-0.016355	9.759620	-0.292763	-0.956179	-0.003307	0.956137	-0.292781	0.008998	-0.009572	-0.000528	0.999954	
4248														-0.115041	-0.016146	9.759621	-0.292715	-0.956194	-0.003299	0.956152	-0.292733	0.008995	-0.009567	-0.000521	0.999954	
4249														-0.100349	-0.018553	9.759988	-0.292717	-0.956193	-0.003293	0.956152	-0.292735	0.008958	-0.009529	-0.000527	0.999954	
4250														-0.099803	-0.018555	9.745351	-0.292675	-0.956206	-0.003254	0.956164	-0.292693	0.008971	-0.009531	-0.000486	0.999954	
4251														-0.097069	-0.003895	9.745010	-0.292626	-0.956221	-0.003287	0.956180	-0.292644	0.008959	-0.009529	-0.000521	0.999954	
4252														-0.111067	-0.001664	9.730009	-0.292599	-0.956229	-0.003298	0.956188	-0.292617	0.008950	-0.009524	-0.000535	0.999955	
4253														-0.099538	-0.018155	9.745354	-0.292595	-0.956231	-0.003305	0.956189	-0.292613	0.008953	-0.009528	-0.000540	0.999954	
4254														-0.097111	-0.003198	9.759653	-0.292602	-0.956228	-0.003318	0.956187	-0.292621	0.008945	-0.009525	-0.000555	0.999954	
4255														-0.111350	-0.000517	9.759292	-0.292559	-0.956242	-0.003338	0.956200	-0.292577	0.008925	-0.009511	-0.000581	0.999955	
4256														-0.085024	-0.020166	9.760361	-0.292529	-0.956251	-0.003351	0.956210	-0.292547	0.008915	-0.009505	-0.000596	0.999955	
4257														-0.099735	-0.016749	9.774639	-0.292506	-0.956258	-0.003318	0.956216	-0.292524	0.008950	-0.009529	-0.000555	0.999954	
4258														-0.099190	-0.016918	9.745360	-0.292470	-0.956269	-0.003280	0.956227	-0.292488	0.008964	-0.009531	-0.000515	0.999954	
4259														-0.128317	-0.010966	9.759276	-0.292470	-0.956269	-0.003319	0.956227	-0.292488	0.008973	-0.009551	-0.000549	0.999954	
4260														-0.097038	-0.001344	9.774297	-0.292437	-0.956279	-0.003306	0.956237	-0.292455	0.008948	-0.009523	-0.000544	0.999955	
4261														-0.096263	-0.001905	9.745019	-0.292382	-0.956296	-0.003310	0.956254	-0.292400	0.008953	-0.009530	-0.000548	0.999954	
4262														-0.113339	-0.013403	9.745002	-0.292404	-0.956289	-0.003306	0.956247	-0.292422	0.008969	-0.009543	-0.000539	0.999954	
4263														-0.084745	-0.018018	9.760367	-0.292383	-0.956296	-0.003306	0.956254	-0.292401	0.008953	-0.009528	-0.000543	0.999954	
4264														-0.098969	-0.015236	9.760007	-0.292271	-0.956330	-0.003318	0.956288	-0.292289	0.008945	-0.009524	-0.000559	0.999954	
4265														-0.113087	-0.012466	9.759649	-0.292231	-0.956342	-0.003314	0.956301	-0.292249	0.008908	-0.009487	-0.000566	0.999955	
4266														-0.098751	-0.014610	9.774653	-0.292218	-0.956346	-0.003338	0.956305	-0.292236	0.008908	-0.009494	-0.000589	0.999955	
4267														-0.115049	-0.027153	9.745361	-0.292191	-0.956354	-0.003347	0.956313	-0.292209	0.008878	-0.009469	-0.000607	0.999955	
4268														-0.098465	-0.014477	9.774656	-0.292170	-0.956361	-0.003364	0.956319	-0.292188	0.008892	-0.009487	-0.000620	0.999955	
4269														-0.098102	-0.014731	9.760017	-0.292155	-0.956365	-0.003366	0.956324	-0.292174	0.008874	-0.009470	-0.000626	0.999955	
4270														-0.111971	-0.012208	9.745020	-0.292096	-0.956383	-0.003343	0.956342	-0.292115	0.008863	-0.009453	-0.000609	0.999955	
4271														-0.112077	-0.011553	9.759662	-0.292069	-0.956391	-0.003355	0.956350	-0.292088	0.008856	-0.009450	-0.000622	0.999955	
4272														-0.097544	-0.013987	9.760024	-0.291990	-0.956416	-0.003347	0.956375	-0.292008	0.008854	-0.009445	-0.000615	0.999955	
4273														-0.108828	0.002890	9.744677	-0.291950	-0.956428	-0.003347	0.956387	-0.291969	0.008837	-0.009429	-0.000621	0.999955	
4274														-0.096838	-0.014062	9.745388	-0.291919	-0.956437	-0.003365	0.956397	-0.291938	0.008815	-0.009414	-0.000645	0.999955	
4275														-0.101709	-0.043183	9.731449	-0.291926	-0.956435	-0.003370	0.956395	-0.291944	0.008819	-0.009419	-0.000649	0.999955	
4276														-0.108751	0.003687	9.759321	-0.291871	-0.956452	-0.003374	0.956411	-0.291889	0.008823	-0.009424	-0.000652	0.999955	
4277														-0.096611	-0.013500	9.745391	-0.291833	-0.956463	-0.003366	0.956423	-0.291852	0.008820	-0.009418	-0.000645	0.999955	
4278														-0.111121	-0.010213	9.759674	-0.291846	-0.956459	-0.003367	0.956419	-0.291864	0.008802	-0.009402	-0.000651	0.999956	
4279														-0.096186	-0.012957	9.745396	-0.291824	-0.956466	-0.003344	0.956426	-0.291843	0.008792	-0.009385	-0.000633	0.999956	
4280														-0.096694	-0.011984	9.774677	-0.291740	-0.956492	-0.003380	0.956451	-0.291759	0.008801	-0.009404	-0.000665	0.999956	
4281														-0.096331	-0.012242	9.760038	-0.291724	-0.956497	-0.003360	0.956457	-0.291742	0.008789	-0.009387	-0.000650	0.999956	
4282														-0.084414	-0.028865	9.760751	-0.291696	-0.956505	-0.003343	0.956465	-0.291715	0.008798	-0.009390	-0.000631	0.999956	
4283														-0.096634	-0.010809	9.789321	-0.291664	-0.956515	-0.003364	0.956475	-0.291682	0.008777	-0.009377	-0.000658	0.999956	
4284														-0.109947	-0.009330	9.745046	-0.291636	-0.956523	-0.003362	0.956484	-0.291655	0.008760	-0.009360	-0.000661	0.999956	
4285														-0.095308	-0.011767	9.745407	-0.291621	-0.956528	-0.003362	0.956488	-0.291640	0.008744	-0.009344	-0.000666	0.999956	
4286														-0.098105	-0.025560	9.760401	-0.291601	-0.956534	-0.003367	0.956494	-0.291620	0.008749	-0.009350	-0.000669	0.999956	
4287														-0.095504	-0.010992	9.760048	-0.291566	-0.956545	-0.003383	0.956505	-0.291585	0.008761	-0.009367	-0.000682	0.999956	
4288														-0.078441	0.000997	9.760052	-0.291584	-0.956539	-0.003377	0.956499	-0.291603	0.008758	-0.009362	-0.000677	0.999956	
4289														-0.098728	-0.024200	9.789682	-0.291548	-0.956550	-0.003405	0.956510	-0.291568	0.008779	-0.009390	-0.000698	0.999956	
4290														-0.110198	-0.007478	9.774330	-0.291559	-0.956547	-0.003405	0.956507	-0.291578	0.008761	-0.009374	-0.000703	0.999956	
4291														-0.112119	-0.022404	9.745407	-0.291553	-0.956549	-0.003389	0.956509	-0.291572	0.008770	-0.009377	-0.000684	0.999956	
4292														-0.109739	-0.007271	9.759693	-0.291501	-0.956564	-0.003393	0.956524	-0.291520	0.008775	-0.009382	-0.000687	0.999956	
4293														-0.094617	-0.010419	9.730773	-0.291469	-0.956574	-0.003371	0.956535	-0.291487	0.008763	-0.009365	-0.000670	0.999956	
4294														-0.095066	-0.009390	9.760054	-0.291467	-0.956575	-0.003395	0.956535	-0.291486	0.008763	-0.009372	-0.000693	0.999956	
4295														-0.112436	-0.020701	9.774692	-0.291439	-0.956583	-0.003411	0.956543	-0.291458	0.008775	-0.009389	-0.000705	0.999956	
4296														-0.094694	-0.009548	9.745415	-0.291456	-0.956578	-0.003398	0.956538	-0.291475	0.008749	-0.009360	-0.000701	0.999956	
4297														-0.095073	-0.008364	9.774697	-0.291391	-0.956598	-0.003380	0.956558	-0.291409	0.008759	-0.009363	-0.000681	0.999956	
4298														-0.109176	-0.006054	9.759700	-0.291363	-0.956606	-0.003427	0.956567	-0.291382	0.008754	-0.009373	-0.000727	0.999956	
4299														-0.111734	-0.020307	9.760058	-0.291350	-0.956611	-0.003398	0.956571	-0.291369	0.008755	-0.009365	-0.000700	0.999956	
4300														-0.109486	-0.004716	9.788982	-0.291317	-0.956621	-0.003398	0.956581	-0.291336	0.008739	-0.009350	-0.000704	0.999956	
4301														-0.094146	-0.008433	9.745421	-0.291280	-0.956632	-0.003414	0.956592	-0.291299	0.008752	-0.009367	-0.000716	0.999956	
4302														-0.111501	-0.019641	9.760062	-0.291207	-0.956654	-0.003417	0.956614	-0.291226	0.008759	-0.009374	-0.000718	0.999956	
4303														-0.123199	-0.002359	9.759348	-0.291162	-0.956668	-0.003409	0.956628	-0.291182	0.008755	-0.009369	-0.000712	0.999956	
4304														-0.111463	-0.018671	9.774707	-0.291139	-0.956675	-0.003396	0.956635	-0.291158	0.008731	-0.009341	-0.000707	0.999956	
4305														-0.082071	-0.024087	9.760784	-0.291122	-0.956680	-0.003394	0.956640	-0.291141	0.008714	-0.009325	-0.000710	0.999956	
4306														-0.093626	-0.006976	9.760070	-0.291051	-0.956701	-0.003414	0.956662	-0.291070	0.008693	-0.009310	-0.000736	0.999956	
4307														-0.098974	-0.035123	9.775433	-0.291050	-0.956702	-0.003384	0.956663	-0.291069	0.008693	-0.009302	-0.000707	0.999956	
4308														-0.092729	-0.007261	9.730794	-0.291014	-0.956713	-0.003395	0.956674	-0.291033	0.008685	-0.009297	-0.000721	0.999957	
4309														-0.093618	-0.005842	9.774713	-0.290978	-0.956724	-0.003404	0.956684	-0.290997	0.008711	-0.009324	-0.000722	0.999956	
4310														-0.110780	-0.017356	9.774717	-0.290966	-0.956727	-0.003402	0.956688	-0.290985	0.008729	-0.009341	-0.000715	0.999956	
4311														-0.108077	-0.002692	9.774356	-0.290947	-0.956733	-0.003402	0.956694	-0.290966	0.008713	-0.009326	-0.000720	0.999956	
4312														-0.110047	-0.017682	9.745440	-0.290914	-0.956743	-0.003400	0.956704	-0.290932	0.008729	-0.009341	-0.000713	0.999956	
4313														-0.110068	-0.017417	9.745441	-0.290889	-0.956751	-0.003404	0.956711	-0.290908	0.008734	-0.009346	-0.000716	0.999956	
4314														-0.093373	-0.004590	9.774716	-0.290885	-0.956752	-0.003400	0.956713	-0.290904	0.008695	-0.009308	-0.000724	0.999956	
4315														-0.095704	-0.018758	9.775082	-0.290867	-0.956758	-0.003391	0.956718	-0.290886	0.008691	-0.009302	-0.000716	0.999956	
4316														-0.109226	-0.017097	9.730809	-0.290835	-0.956767	-0.003387	0.956728	-0.290854	0.008709	-0.009318	-0.000708	0.999956	
4317														-0.090064	0.010207	9.759716	-0.290826	-0.956770	-0.003385	0.956731	-0.290845	0.008692	-0.009301	-0.000711	0.999956	
4318														-0.109140	-0.016180	9.745453	-0.290790	-0.956781	-0.003371	0.956742	-0.290809	0.008667	-0.009273	-0.000705	0.999957	
4319														-0.106335	-0.001525	9.745090	-0.290780	-0.956784	-0.003376	0.956745	-0.290798	0.008672	-0.009279	-0.000709	0.999957	
4320														-0.091948	-0.003870	9.745445	-0.290714	-0.956804	-0.003373	0.956765	-0.290732	0.008690	-0.009295	-0.000701	0.999957	
4321														-0.106770	-0.000560	9.759728	-0.290707	-0.956806	-0.003381	0.956767	-0.290726	0.008715	-0.009322	-0.000701	0.999956	
4322														-0.106738	-0.000246	9.759729	-0.290687	-0.956812	-0.003359	0.956773	-0.290705	0.008703	-0.009303	-0.000684	0.999956	
4323														-0.108829	-0.014783	9.745459	-0.290685	-0.956813	-0.003360	0.956774	-0.290704	0.008686	-0.009287	-0.000689	0.999957	
4324														-0.106463	0.000364	9.759732	-0.290674	-0.956816	-0.003346	0.956777	-0.290692	0.008715	-0.009311	-0.000668	0.999956	
4325														-0.108630	-0.014515	9.730820	-0.290658	-0.956821	-0.003342	0.956781	-0.290677	0.008732	-0.009326	-0.000659	0.999956	
4326														-0.095047	-0.015635	9.775094	-0.290651	-0.956823	-0.003356	0.956784	-0.290669	0.008723	-0.009321	-0.000675	0.999956	
4327														-0.109441	-0.012923	9.774739	-0.290629	-0.956830	-0.003372	0.956790	-0.290648	0.008735	-0.009338	-0.000688	0.999956	
4328														-0.094600	-0.015546	9.760457	-0.290629	-0.956830	-0.003317	0.956791	-0.290647	0.008719	-0.009306	-0.000640	0.999956	
4329														-0.108416	-0.012919	9.745466	-0.290583	-0.956844	-0.003314	0.956805	-0.290601	0.008702	-0.009289	-0.000643	0.999957	
4330														-0.125879	-0.023668	9.774762	-0.290614	-0.956835	-0.003319	0.956795	-0.290632	0.008705	-0.009294	-0.000645	0.999957	
4331														-0.108312	-0.012454	9.745468	-0.290563	-0.956850	-0.003313	0.956811	-0.290581	0.008722	-0.009309	-0.000635	0.999956	
4332														-0.094715	-0.013458	9.789742	-0.290520	-0.956863	-0.003304	0.956824	-0.290538	0.008719	-0.009303	-0.000628	0.999957	
4333														-0.093669	-0.014392	9.745826	-0.290464	-0.956880	-0.003281	0.956841	-0.290482	0.008708	-0.009286	-0.000610	0.999957	
4334														-0.108225	-0.011054	9.760113	-0.290439	-0.956888	-0.003287	0.956848	-0.290457	0.008714	-0.009293	-0.000614	0.999957	
4335														-0.093904	-0.012874	9.775109	-0.290387	-0.956904	-0.003252	0.956864	-0.290405	0.008695	-0.009265	-0.000587	0.999957	
4336														-0.110326	-0.025227	9.745850	-0.290318	-0.956925	-0.003270	0.956885	-0.290336	0.008729	-0.009303	-0.000595	0.999957	
4337														-0.107747	-0.010657	9.745476	-0.290323	-0.956923	-0.003272	0.956884	-0.290340	0.008713	-0.009287	-0.000601	0.999957	
4338														-0.107234	-0.010897	9.730840	-0.290326	-0.956922	-0.003271	0.956883	-0.290344	0.008695	-0.009270	-0.000605	0.999957	
4339														-0.093249	-0.012331	9.760475	-0.290302	-0.956930	-0.003254	0.956890	-0.290320	0.008704	-0.009274	-0.000587	0.999957	
4340														-0.104689	0.004504	9.745107	-0.290291	-0.956933	-0.003269	0.956893	-0.290309	0.008697	-0.009271	-0.000603	0.999957	
4341														-0.081005	-0.029258	9.746567	-0.290287	-0.956934	-0.003252	0.956895	-0.290305	0.008706	-0.009275	-0.000584	0.999957	
4342														-0.107807	-0.008516	9.774762	-0.290259	-0.956943	-0.003267	0.956903	-0.290276	0.008718	-0.009291	-0.000596	0.999957	
4343														-0.092812	-0.011772	9.745838	-0.290248	-0.956946	-0.003258	0.956906	-0.290266	0.008717	-0.009287	-0.000588	0.999957	
4344														-0.109694	-0.023278	9.745862	-0.290166	-0.956971	-0.003249	0.956931	-0.290184	0.008713	-0.009281	-0.000581	0.999957	
4345														-0.109611	-0.023021	9.745864	-0.290173	-0.956969	-0.003256	0.956929	-0.290191	0.008718	-0.009288	-0.000586	0.999957	
4346														-0.109875	-0.022483	9.760503	-0.290085	-0.956995	-0.003281	0.956956	-0.290103	0.008718	-0.009295	-0.000611	0.999957	
4347														-0.090447	0.004431	9.774743	-0.290059	-0.957003	-0.003252	0.956964	-0.290076	0.008720	-0.009288	-0.000582	0.999957	
4348														-0.107084	-0.007350	9.760129	-0.290050	-0.957006	-0.003237	0.956966	-0.290068	0.008728	-0.009292	-0.000566	0.999957	
4349														-0.092406	-0.010010	9.745844	-0.290041	-0.957009	-0.003233	0.956969	-0.290059	0.008746	-0.009308	-0.000557	0.999957	
4350														-0.107017	-0.006721	9.760130	-0.290017	-0.957016	-0.003233	0.956976	-0.290034	0.008728	-0.009291	-0.000563	0.999957	
4351														-0.089430	0.004896	9.745468	-0.290042	-0.957008	-0.003220	0.956969	-0.290059	0.008703	-0.009263	-0.000558	0.999957	
4352														-0.108901	-0.020920	9.745876	-0.289979	-0.957028	-0.003195	0.956988	-0.289996	0.008724	-0.009276	-0.000528	0.999957	
4353														-0.089678	0.006124	9.760107	-0.289951	-0.957036	-0.003202	0.956996	-0.289968	0.008749	-0.009302	-0.000528	0.999957	
4354														-0.120424	-0.003880	9.730503	-0.289942	-0.957039	-0.003220	0.956999	-0.289959	0.008707	-0.009267	-0.000557	0.999957	
4355														-0.120819	-0.002967	9.759784	-0.289901	-0.957051	-0.003236	0.957011	-0.289919	0.008720	-0.009284	-0.000569	0.999957	
4356														-0.106390	-0.005455	9.760138	-0.289876	-0.957059	-0.003248	0.957019	-0.289893	0.008712	-0.009279	-0.000583	0.999957	
4357														-0.092185	-0.007456	9.775131	-0.289867	-0.957061	-0.003250	0.957022	-0.289884	0.008716	-0.009284	-0.000584	0.999957	
4358														-0.106014	-0.005532	9.745500	-0.289856	-0.957065	-0.003255	0.957025	-0.289874	0.008721	-0.009290	-0.000588	0.999957	
4359														-0.091730	-0.007847	9.745852	-0.289830	-0.957073	-0.003256	0.957033	-0.289848	0.008759	-0.009327	-0.000577	0.999956	
4360														-0.094467	-0.021514	9.760876	-0.289770	-0.957091	-0.003239	0.957051	-0.289788	0.008713	-0.009277	-0.000575	0.999957	
4361														-0.106363	-0.003721	9.774781	-0.289740	-0.957100	-0.003227	0.957060	-0.289757	0.008743	-0.009303	-0.000555	0.999957	
4362														-0.091183	-0.007306	9.731216	-0.289765	-0.957092	-0.003231	0.957053	-0.289783	0.008747	-0.009308	-0.000558	0.999957	
4363														-0.106078	-0.003580	9.760142	-0.289729	-0.957103	-0.003223	0.957063	-0.289747	0.008744	-0.009303	-0.000551	0.999957	
4364														-0.106005	-0.003427	9.760143	-0.289817	-0.957076	-0.003480	0.957034	-0.289837	0.008935	-0.009560	-0.000741	0.999954	
4365														-0.106154	-0.002786	9.774783	-0.289747	-0.957097	-0.003458	0.957056	-0.289767	0.008924	-0.009543	-0.000724	0.999954	
4366														-0.108051	-0.017776	9.745892	-0.289741	-0.957099	-0.003462	0.957057	-0.289761	0.008929	-0.009550	-0.000727	0.999954	
4367														-0.102909	0.011680	9.759763	-0.289762	-0.957092	-0.003458	0.957051	-0.289782	0.008892	-0.009512	-0.000733	0.999954	
4368														-0.091576	-0.004280	9.789780	-0.289724	-0.957104	-0.003480	0.957063	-0.289744	0.008926	-0.009551	-0.000744	0.999954	
4369														-0.096351	-0.033922	9.761273	-0.289698	-0.957112	-0.003506	0.957070	-0.289718	0.008928	-0.009561	-0.000769	0.999954	
4370														-0.105174	-0.002756	9.745510	-0.289714	-0.957107	-0.003484	0.957066	-0.289734	0.008916	-0.009543	-0.000752	0.999954	
4371														-0.105270	-0.002065	9.760151	-0.289679	-0.957117	-0.003496	0.957076	-0.289699	0.008909	-0.009540	-0.000766	0.999954	
4372														-0.093211	-0.019447	9.746251	-0.289633	-0.957131	-0.003527	0.957090	-0.289654	0.008931	-0.009570	-0.000789	0.999954	
4373														-0.119487	0.000188	9.745158	-0.289600	-0.957141	-0.003539	0.957100	-0.289621	0.008923	-0.009565	-0.000803	0.999954	
4374														-0.090576	-0.004721	9.745865	-0.289591	-0.957144	-0.003521	0.957103	-0.289611	0.008933	-0.009570	-0.000784	0.999954	
4375														-0.102034	-0.006124	9.749358	-0.289563	-0.957152	-0.003533	0.957111	-0.289583	0.008924	-0.009565	-0.000797	0.999954	
4376														-0.113491	-0.007528	9.752851	-0.289535	-0.957161	-0.003545	0.957120	-0.289556	0.008916	-0.009561	-0.000811	0.999954	
4377														-0.105093	-0.001076	9.760153	-0.289526	-0.957164	-0.003532	0.957122	-0.289546	0.008948	-0.009588	-0.000790	0.999954	
4378														-0.107374	-0.015619	9.745903	-0.289530	-0.957163	-0.003533	0.957121	-0.289550	0.008933	-0.009573	-0.000796	0.999954	
4379														-0.093436	-0.017052	9.775535	-0.289484	-0.957176	-0.003529	0.957135	-0.289505	0.008951	-0.009589	-0.000786	0.999954	
4380														-0.093227	-0.017173	9.760896	-0.289429	-0.957193	-0.003524	0.957151	-0.289450	0.008970	-0.009606	-0.000776	0.999954	
4381														-0.090662	-0.002493	9.760506	-0.289409	-0.957199	-0.003528	0.957157	-0.289430	0.008975	-0.009612	-0.000779	0.999954	
4382														-0.107475	-0.014660	9.745904	-0.289392	-0.957204	-0.003557	0.957162	-0.289413	0.008996	-0.009641	-0.000801	0.999953	
4383														-0.093095	-0.017076	9.746257	-0.289422	-0.957195	-0.003550	0.957153	-0.289443	0.008993	-0.009635	-0.000795	0.999953	
4384														-0.107863	-0.013728	9.760542	-0.289387	-0.957206	-0.003549	0.957163	-0.289408	0.009032	-0.009673	-0.000784	0.999953	
4385														-0.093469	-0.016039	9.760896	-0.289340	-0.957220	-0.003550	0.957178	-0.289361	0.009016	-0.009658	-0.000789	0.999953	
4386														-0.110243	-0.027789	9.760936	-0.289325	-0.957224	-0.003572	0.957182	-0.289346	0.008996	-0.009644	-0.000816	0.999953	
4387														-0.104234	0.000275	9.730878	-0.289316	-0.957227	-0.003559	0.957185	-0.289337	0.008972	-0.009617	-0.000811	0.999953	
4388														-0.092460	-0.016180	9.746264	-0.289312	-0.957228	-0.003592	0.957187	-0.289333	0.008960	-0.009616	-0.000846	0.999953	
4389														-0.107092	-0.013109	9.760551	-0.289279	-0.957238	-0.003597	0.957196	-0.289300	0.008965	-0.009622	-0.000850	0.999953	
4390														-0.092930	-0.015026	9.775543	-0.289271	-0.957241	-0.003600	0.957199	-0.289292	0.008970	-0.009628	-0.000851	0.999953	
4391														-0.092678	-0.015208	9.760905	-0.289267	-0.957242	-0.003596	0.957200	-0.289288	0.008988	-0.009644	-0.000842	0.999953	
4392														-0.103991	0.001627	9.745523	-0.289246	-0.957248	-0.003579	0.957207	-0.289267	0.008943	-0.009596	-0.000839	0.999954	
4393														-0.104236	0.002974	9.774804	-0.289235	-0.957252	-0.003541	0.957210	-0.289256	0.008956	-0.009597	-0.000799	0.999954	
4394														-0.091910	-0.014484	9.746272	-0.289240	-0.957250	-0.003549	0.957208	-0.289261	0.008982	-0.009624	-0.000799	0.999953	
4395														-0.106638	-0.011299	9.760559	-0.289221	-0.957256	-0.003561	0.957214	-0.289242	0.008974	-0.009620	-0.000814	0.999953	
4396														-0.108867	-0.026012	9.746316	-0.289184	-0.957267	-0.003566	0.957225	-0.289205	0.008979	-0.009626	-0.000817	0.999953	
4397														-0.121127	-0.007924	9.774848	-0.289165	-0.957273	-0.003567	0.957231	-0.289186	0.008964	-0.009612	-0.000822	0.999953	
4398														-0.123197	-0.022599	9.760608	-0.289147	-0.957278	-0.003566	0.957236	-0.289168	0.008947	-0.009596	-0.000826	0.999954	
4399														-0.106186	-0.010652	9.760564	-0.289150	-0.957277	-0.003597	0.957235	-0.289171	0.008969	-0.009626	-0.000850	0.999953	
4400														-0.091699	-0.013069	9.760917	-0.289154	-0.957276	-0.003585	0.957234	-0.289175	0.008945	-0.009599	-0.000845	0.999954	
4401														-0.108142	-0.025231	9.746326	-0.289151	-0.957277	-0.003606	0.957236	-0.289172	0.008925	-0.009587	-0.000871	0.999954	
4402														-0.108565	-0.024127	9.775606	-0.289114	-0.957288	-0.003589	0.957247	-0.289135	0.008935	-0.009591	-0.000853	0.999954	
4403														-0.105733	-0.009899	9.760570	-0.289108	-0.957290	-0.003606	0.957248	-0.289130	0.008948	-0.009609	-0.000865	0.999953	
4404														-0.091351	-0.012306	9.760921	-0.289093	-0.957294	-0.003609	0.957253	-0.289115	0.008954	-0.009615	-0.000867	0.999953	
4405														-0.105633	-0.009432	9.760572	-0.289078	-0.957299	-0.003588	0.957257	-0.289099	0.008943	-0.009598	-0.000849	0.999954	
4406														-0.096717	-0.039462	9.791000	-0.289060	-0.957304	-0.003558	0.957263	-0.289081	0.008944	-0.009590	-0.000821	0.999954	
4407														-0.117418	0.008663	9.774464	-0.289089	-0.957296	-0.003593	0.957254	-0.289110	0.008932	-0.009589	-0.000858	0.999954	
4408														-0.091256	-0.010772	9.775565	-0.289105	-0.957291	-0.003592	0.957249	-0.289126	0.008971	-0.009626	-0.000845	0.999953	
4409														-0.119413	-0.006935	9.730944	-0.289092	-0.957294	-0.003639	0.957253	-0.289113	0.008967	-0.009636	-0.000892	0.999953	
4410														-0.078833	-0.029042	9.732397	-0.289076	-0.957299	-0.003648	0.957257	-0.289097	0.008992	-0.009662	-0.000893	0.999953	
4411														-0.093720	-0.025308	9.761324	-0.289099	-0.957292	-0.003635	0.957251	-0.289120	0.008966	-0.009634	-0.000888	0.999953	
4412														-0.105377	-0.008079	9.760575	-0.289042	-0.957309	-0.003639	0.957268	-0.289064	0.008973	-0.009641	-0.000890	0.999953	
4413														-0.093506	-0.024850	9.761328	-0.289008	-0.957320	-0.003643	0.957278	-0.289030	0.008977	-0.009647	-0.000893	0.999953	
4414														-0.105049	-0.008117	9.745938	-0.288985	-0.957327	-0.003647	0.957285	-0.289007	0.008983	-0.009654	-0.000895	0.999953	
4415														-0.107324	-0.022779	9.731700	-0.288958	-0.957335	-0.003651	0.957293	-0.288979	0.008988	-0.009660	-0.000898	0.999953	
4416														-0.103163	-0.019355	9.739008	-0.288943	-0.957340	-0.003638	0.957298	-0.288964	0.008991	-0.009659	-0.000885	0.999953	
4417														-0.099001	-0.015931	9.746316	-0.288927	-0.957344	-0.003625	0.957302	-0.288949	0.008995	-0.009658	-0.000871	0.999953	
4418														-0.104841	-0.007185	9.745941	-0.288887	-0.957356	-0.003671	0.957314	-0.288909	0.008992	-0.009669	-0.000917	0.999953	
4419														-0.107681	-0.021144	9.760981	-0.288856	-0.957366	-0.003675	0.957324	-0.288878	0.008997	-0.009675	-0.000919	0.999953	
4420														-0.090285	-0.009547	9.746293	-0.288816	-0.957378	-0.003674	0.957336	-0.288838	0.008981	-0.009659	-0.000924	0.999953	
4421														-0.104629	-0.006834	9.745943	-0.288802	-0.957382	-0.003691	0.957340	-0.288824	0.008994	-0.009676	-0.000936	0.999953	
4422														-0.107506	-0.020631	9.760984	-0.288785	-0.957387	-0.003695	0.957345	-0.288807	0.008998	-0.009682	-0.000938	0.999953	
4423														-0.119712	-0.002978	9.774868	-0.288767	-0.957392	-0.003703	0.957350	-0.288789	0.009025	-0.009710	-0.000939	0.999952	
4424														-0.105490	-0.004821	9.789859	-0.288763	-0.957393	-0.003690	0.957351	-0.288786	0.009001	-0.009683	-0.000934	0.999953	
4425														-0.106856	-0.020594	9.746351	-0.288759	-0.957395	-0.003730	0.957353	-0.288781	0.008955	-0.009650	-0.000985	0.999953	
4426														-0.092488	-0.022607	9.761343	-0.288749	-0.957398	-0.003713	0.957356	-0.288771	0.008965	-0.009655	-0.000966	0.999953	
4427														-0.104202	-0.005328	9.760590	-0.288708	-0.957410	-0.003711	0.957369	-0.288731	0.008949	-0.009640	-0.000970	0.999953	
4428														-0.104668	-0.004151	9.789868	-0.288678	-0.957419	-0.003707	0.957377	-0.288701	0.008967	-0.009655	-0.000960	0.999953	
4429														-0.103821	-0.005321	9.745953	-0.288638	-0.957431	-0.003718	0.957390	-0.288660	0.008960	-0.009652	-0.000974	0.999953	
4430														-0.106540	-0.019182	9.760998	-0.288600	-0.957442	-0.003731	0.957401	-0.288623	0.008953	-0.009649	-0.000988	0.999953	
4431														-0.106353	-0.018935	9.761001	-0.288566	-0.957453	-0.003710	0.957412	-0.288588	0.008942	-0.009632	-0.000972	0.999953	
4432														-0.102942	-0.005097	9.731321	-0.288555	-0.957456	-0.003697	0.957415	-0.288577	0.008918	-0.009606	-0.000966	0.999953	
4433														-0.090909	-0.021925	9.732079	-0.288509	-0.957470	-0.003721	0.957429	-0.288532	0.008918	-0.009612	-0.000989	0.999953	
4434														-0.105975	-0.018439	9.761006	-0.288567	-0.957452	-0.003752	0.957411	-0.288589	0.008939	-0.009641	-0.001012	0.999953	
4435														-0.105795	-0.018787	9.746366	-0.288550	-0.957457	-0.003756	0.957416	-0.288573	0.008945	-0.009648	-0.001015	0.999953	
4436														-0.103368	-0.003603	9.760600	-0.288544	-0.957459	-0.003735	0.957418	-0.288567	0.008932	-0.009630	-0.000999	0.999953	
4437														-0.103502	-0.002836	9.775240	-0.288535	-0.957462	-0.003740	0.957421	-0.288557	0.008937	-0.009636	-0.001002	0.999953	
4438														-0.117635	-0.000641	9.760252	-0.288523	-0.957466	-0.003763	0.957424	-0.288546	0.008938	-0.009643	-0.001024	0.999953	
4439														-0.100865	0.011734	9.774833	-0.288507	-0.957470	-0.003774	0.957429	-0.288530	0.008929	-0.009639	-0.001038	0.999953	
4440														-0.117164	-0.000753	9.745616	-0.288495	-0.957474	-0.003743	0.957433	-0.288518	0.008931	-0.009631	-0.001008	0.999953	
4441														-0.091631	-0.018730	9.790640	-0.288454	-0.957486	-0.003790	0.957445	-0.288477	0.008928	-0.009642	-0.001054	0.999953	
4442														-0.105488	-0.017002	9.761013	-0.288411	-0.957499	-0.003774	0.957458	-0.288434	0.008938	-0.009647	-0.001036	0.999953	
4443														-0.088746	-0.004356	9.775593	-0.288419	-0.957497	-0.003779	0.957456	-0.288442	0.008943	-0.009653	-0.001039	0.999953	
4444														-0.105102	-0.016894	9.746377	-0.288417	-0.957497	-0.003771	0.957456	-0.288440	0.008940	-0.009647	-0.001032	0.999953	
4445														-0.119989	-0.013158	9.775306	-0.288419	-0.957497	-0.003774	0.957456	-0.288442	0.008944	-0.009653	-0.001034	0.999953	
4446														-0.088286	-0.003989	9.760956	-0.288404	-0.957502	-0.003758	0.957460	-0.288426	0.008955	-0.009658	-0.001015	0.999953	
4447														-0.090603	-0.018111	9.761370	-0.288401	-0.957502	-0.003753	0.957461	-0.288424	0.008918	-0.009621	-0.001022	0.999953	
4448														-0.087429	-0.004472	9.731682	-0.288325	-0.957525	-0.003773	0.957484	-0.288347	0.008953	-0.009661	-0.001031	0.999953	
4449														-0.119878	-0.012111	9.775309	-0.288339	-0.957521	-0.003761	0.957479	-0.288362	0.008984	-0.009687	-0.001010	0.999953	
4450														-0.104883	-0.015277	9.746382	-0.288339	-0.957521	-0.003761	0.957480	-0.288362	0.008969	-0.009672	-0.001016	0.999953	
4451														-0.090615	-0.017262	9.761371	-0.288310	-0.957530	-0.003787	0.957488	-0.288333	0.008970	-0.009681	-0.001040	0.999953	
4452														-0.102359	-0.000202	9.760611	-0.288286	-0.957537	-0.003787	0.957496	-0.288309	0.008954	-0.009665	-0.001044	0.999953	
4453														-0.116867	0.003060	9.774903	-0.288278	-0.957539	-0.003778	0.957498	-0.288301	0.008951	-0.009660	-0.001037	0.999953	
4454														-0.104321	-0.014534	9.746389	-0.288249	-0.957548	-0.003768	0.957507	-0.288272	0.008947	-0.009654	-0.001029	0.999953	
4455														-0.104088	-0.014344	9.746392	-0.288258	-0.957545	-0.003777	0.957504	-0.288281	0.008919	-0.009629	-0.001046	0.999953	
4456														-0.089441	-0.016802	9.746743	-0.288224	-0.957555	-0.003790	0.957515	-0.288247	0.008911	-0.009625	-0.001061	0.999953	
4457														-0.115909	0.003535	9.760272	-0.288190	-0.957566	-0.003751	0.957525	-0.288212	0.008925	-0.009627	-0.001020	0.999953	
4458														-0.118159	-0.011039	9.746049	-0.288183	-0.957568	-0.003776	0.957527	-0.288206	0.008926	-0.009635	-0.001044	0.999953	
4459														-0.089148	-0.016087	9.746747	-0.288145	-0.957579	-0.003783	0.957538	-0.288168	0.008897	-0.009610	-0.001058	0.999953	
4460														-0.100850	0.000912	9.745985	-0.288128	-0.957584	-0.003808	0.957544	-0.288151	0.008898	-0.009618	-0.001083	0.999953	
4461														-0.088859	-0.015953	9.746750	-0.288108	-0.957590	-0.003807	0.957550	-0.288131	0.008881	-0.009601	-0.001087	0.999953	
4462														-0.101141	0.002147	9.775265	-0.288100	-0.957593	-0.003810	0.957552	-0.288124	0.008886	-0.009607	-0.001088	0.999953	
4463														-0.100581	0.001417	9.745988	-0.288097	-0.957594	-0.003814	0.957553	-0.288120	0.008892	-0.009614	-0.001091	0.999953	
4464														-0.120658	-0.023567	9.775750	-0.288075	-0.957600	-0.003788	0.957559	-0.288098	0.008914	-0.009627	-0.001060	0.999953	
4465														-0.103803	-0.011308	9.775680	-0.288046	-0.957609	-0.003797	0.957568	-0.288069	0.008939	-0.009654	-0.001061	0.999953	
4466														-0.115233	0.004716	9.745638	-0.288030	-0.957614	-0.003843	0.957573	-0.288054	0.008935	-0.009663	-0.001106	0.999953	
4467														-0.091366	-0.029105	9.747169	-0.288024	-0.957615	-0.003822	0.957574	-0.288048	0.008924	-0.009647	-0.001089	0.999953	
4468														-0.103646	-0.010898	9.775683	-0.288029	-0.957614	-0.003827	0.957573	-0.288053	0.008930	-0.009654	-0.001092	0.999953	
4469														-0.114847	0.005420	9.745642	-0.288028	-0.957615	-0.003805	0.957574	-0.288051	0.008919	-0.009637	-0.001075	0.999953	
4470														-0.093458	-0.042666	9.747595	-0.287976	-0.957630	-0.003820	0.957589	-0.288000	0.008912	-0.009634	-0.001091	0.999953	
4471														-0.100426	0.003860	9.760630	-0.287975	-0.957630	-0.003803	0.957589	-0.287998	0.008922	-0.009639	-0.001072	0.999953	
4472														-0.114866	0.006768	9.760283	-0.287968	-0.957632	-0.003799	0.957591	-0.287991	0.008940	-0.009655	-0.001064	0.999953	
4473														-0.102380	-0.010983	9.731774	-0.287944	-0.957640	-0.003820	0.957599	-0.287967	0.008920	-0.009642	-0.001089	0.999953	
4474														-0.117210	-0.007300	9.760705	-0.287896	-0.957654	-0.003802	0.957613	-0.287919	0.008929	-0.009646	-0.001070	0.999953	
4475														-0.102810	-0.009569	9.761052	-0.287876	-0.957660	-0.003819	0.957619	-0.287899	0.008943	-0.009664	-0.001082	0.999953	
4476														-0.088470	-0.011885	9.761399	-0.287860	-0.957665	-0.003815	0.957624	-0.287883	0.008962	-0.009681	-0.001073	0.999953	
4477														-0.102916	-0.009084	9.761052	-0.287827	-0.957675	-0.003818	0.957633	-0.287851	0.008966	-0.009686	-0.001076	0.999953	
4478														-0.117313	-0.006341	9.760704	-0.287791	-0.957686	-0.003820	0.957644	-0.287814	0.008972	-0.009692	-0.001077	0.999952	
4479														-0.090830	-0.025685	9.761823	-0.287770	-0.957692	-0.003828	0.957651	-0.287793	0.008943	-0.009666	-0.001092	0.999953	
4480														-0.117118	-0.006095	9.760707	-0.287730	-0.957704	-0.003850	0.957662	-0.287754	0.008977	-0.009705	-0.001104	0.999952	
4481														-0.102446	-0.008837	9.746416	-0.287702	-0.957712	-0.003827	0.957671	-0.287725	0.008966	-0.009688	-0.001086	0.999952	
4482														-0.102318	-0.008637	9.746418	-0.287708	-0.957711	-0.003853	0.957669	-0.287731	0.008966	-0.009696	-0.001110	0.999952	
4483														-0.087720	-0.011025	9.746767	-0.287720	-0.957707	-0.003840	0.957666	-0.287744	0.008942	-0.009668	-0.001105	0.999953	
4484														-0.102275	-0.007712	9.761059	-0.287726	-0.957706	-0.003628	0.957663	-0.287748	0.009114	-0.009772	-0.000852	0.999952	
4485														-0.102248	-0.007503	9.761060	-0.287692	-0.957716	-0.003641	0.957673	-0.287714	0.009106	-0.009768	-0.000867	0.999952	
4486														-0.075541	-0.027259	9.747541	-0.287682	-0.957719	-0.003632	0.957676	-0.287704	0.009103	-0.009763	-0.000859	0.999952	
4487														-0.101713	-0.007476	9.746425	-0.287662	-0.957725	-0.003623	0.957682	-0.287684	0.009100	-0.009757	-0.000852	0.999952	
4488														-0.086900	-0.010387	9.732135	-0.287649	-0.957729	-0.003656	0.957686	-0.287671	0.009087	-0.009755	-0.000887	0.999952	
4489														-0.104048	-0.021544	9.746853	-0.287614	-0.957740	-0.003616	0.957697	-0.287635	0.009101	-0.009757	-0.000846	0.999952	
