// Start Time: Unknown: 
// Update Rate: 60.0Hz 
// Filter Profile: human (46.1) 
// Firmware Version: 4.6.0
PacketCounter	SampleTimeFine	Year	Month	Day	Second	UTC_Nano	UTC_Year	UTC_Month	UTC_Day	UTC_Hour	UTC_Minute	UTC_Second	UTC_Valid	Acc_X	Acc_Y	Acc_Z	Mat[1][1]	Mat[2][1]	Mat[3][1]	Mat[1][2]	Mat[2][2]	Mat[3][2]	Mat[1][3]	Mat[2][3]	Mat[3][3] 
3598														-0.073354	0.108764	9.815599	-0.938355	0.345505	-0.010754	-0.345575	-0.938375	0.005513	-0.008186	0.008889	0.999927	
3599														-0.071018	0.065283	9.816952	-0.938357	0.345500	-0.010758	-0.345571	-0.938377	0.005495	-0.008197	0.008874	0.999927	
3600														-0.086152	0.078599	9.787027	-0.938344	0.345536	-0.010731	-0.345606	-0.938364	0.005523	-0.008161	0.008891	0.999927	
3601														-0.086661	0.079929	9.816303	-0.938365	0.345479	-0.010733	-0.345549	-0.938384	0.005506	-0.008170	0.008876	0.999927	
3602														-0.087678	0.094988	9.815843	-0.938351	0.345517	-0.010720	-0.345588	-0.938370	0.005528	-0.008149	0.008892	0.999927	
3603														-0.088263	0.096245	9.845118	-0.938366	0.345478	-0.010717	-0.345548	-0.938385	0.005497	-0.008158	0.008862	0.999927	
3604														-0.072219	0.080860	9.787198	-0.938369	0.345468	-0.010715	-0.345537	-0.938389	0.005466	-0.008167	0.008832	0.999928	
3605														-0.058545	0.083353	9.831302	-0.938377	0.345448	-0.010724	-0.345517	-0.938396	0.005463	-0.008176	0.008832	0.999928	
3606														-0.087515	0.081242	9.801639	-0.938387	0.345420	-0.010710	-0.345490	-0.938407	0.005486	-0.008156	0.008848	0.999928	
3607														-0.088604	0.096751	9.815817	-0.938384	0.345430	-0.010686	-0.345499	-0.938403	0.005479	-0.008135	0.008834	0.999928	
3608														-0.086809	0.067442	9.802089	-0.938388	0.345418	-0.010696	-0.345487	-0.938407	0.005477	-0.008145	0.008834	0.999928	
3609														-0.073217	0.082772	9.787174	-0.938376	0.345451	-0.010709	-0.345521	-0.938395	0.005438	-0.008171	0.008804	0.999928	
3610														-0.089227	0.097248	9.801160	-0.938381	0.345437	-0.010704	-0.345506	-0.938401	0.005441	-0.008165	0.008804	0.999928	
3611														-0.074109	0.084326	9.816445	-0.938376	0.345451	-0.010694	-0.345520	-0.938396	0.005429	-0.008160	0.008790	0.999928	
3612														-0.090920	0.113419	9.829970	-0.938374	0.345456	-0.010697	-0.345525	-0.938394	0.005411	-0.008169	0.008774	0.999928	
3613														-0.075220	0.099078	9.801336	-0.938367	0.345474	-0.010687	-0.345543	-0.938387	0.005399	-0.008164	0.008759	0.999928	
3614														-0.074502	0.084832	9.801793	-0.938367	0.345474	-0.010682	-0.345543	-0.938387	0.005401	-0.008158	0.008760	0.999928	
3615														-0.073782	0.070586	9.802250	-0.938362	0.345489	-0.010672	-0.345558	-0.938382	0.005389	-0.008152	0.008745	0.999929	
3616														-0.089585	0.084757	9.801590	-0.938366	0.345476	-0.010702	-0.345545	-0.938387	0.005394	-0.008179	0.008760	0.999928	
3617														-0.077100	0.115840	9.815489	-0.938359	0.345496	-0.010669	-0.345565	-0.938379	0.005408	-0.008143	0.008761	0.999928	
3618														-0.089898	0.085568	9.801580	-0.938360	0.345495	-0.010680	-0.345563	-0.938380	0.005371	-0.008167	0.008730	0.999929	
3619														-0.075583	0.086818	9.801767	-0.938353	0.345513	-0.010683	-0.345582	-0.938373	0.005387	-0.008163	0.008746	0.999928	
3620														-0.075377	0.073626	9.831505	-0.938352	0.345515	-0.010692	-0.345584	-0.938372	0.005383	-0.008173	0.008747	0.999928	
3621														-0.077154	0.102844	9.815928	-0.938360	0.345493	-0.010687	-0.345562	-0.938381	0.005387	-0.008167	0.008748	0.999928	
3622														-0.076286	0.088293	9.801748	-0.938352	0.345514	-0.010703	-0.345583	-0.938373	0.005397	-0.008179	0.008763	0.999928	
3623														-0.076818	0.089262	9.816381	-0.938351	0.345518	-0.010713	-0.345587	-0.938371	0.005394	-0.008189	0.008764	0.999928	
3624														-0.077789	0.104397	9.815907	-0.938352	0.345516	-0.010687	-0.345585	-0.938372	0.005422	-0.008155	0.008781	0.999928	
3625														-0.062436	0.090897	9.816566	-0.938340	0.345549	-0.010688	-0.345618	-0.938360	0.005356	-0.008179	0.008720	0.999929	
3626														-0.077059	0.089764	9.801729	-0.938347	0.345531	-0.010675	-0.345599	-0.938367	0.005378	-0.008159	0.008736	0.999929	
3627														-0.077142	0.090210	9.801724	-0.938343	0.345542	-0.010666	-0.345611	-0.938363	0.005367	-0.008154	0.008722	0.999929	
3628														-0.077596	0.091035	9.816359	-0.938346	0.345532	-0.010675	-0.345601	-0.938366	0.005364	-0.008164	0.008722	0.999929	
3629														-0.092225	0.090120	9.801518	-0.938344	0.345539	-0.010669	-0.345608	-0.938364	0.005366	-0.008157	0.008722	0.999929	
3630														-0.063142	0.092288	9.801904	-0.938344	0.345539	-0.010659	-0.345607	-0.938364	0.005354	-0.008152	0.008708	0.999929	
3631														-0.077027	0.077292	9.802175	-0.938345	0.345536	-0.010665	-0.345605	-0.938365	0.005385	-0.008147	0.008739	0.999929	
3632														-0.078155	0.092347	9.801696	-0.938351	0.345519	-0.010663	-0.345587	-0.938371	0.005354	-0.008156	0.008709	0.999929	
3633														-0.062723	0.079084	9.802361	-0.938348	0.345528	-0.010642	-0.345596	-0.938368	0.005397	-0.008121	0.008742	0.999929	
3634														-0.077948	0.092314	9.772407	-0.938356	0.345506	-0.010654	-0.345574	-0.938376	0.005361	-0.008145	0.008712	0.999929	
3635														-0.093245	0.092623	9.801485	-0.938357	0.345505	-0.010636	-0.345573	-0.938377	0.005370	-0.008125	0.008714	0.999929	
3636														-0.078559	0.093510	9.787036	-0.938356	0.345507	-0.010646	-0.345576	-0.938376	0.005366	-0.008136	0.008714	0.999929	
3637														-0.079243	0.094877	9.816309	-0.938358	0.345500	-0.010641	-0.345569	-0.938378	0.005368	-0.008130	0.008715	0.999929	
3638														-0.063125	0.080154	9.773060	-0.938359	0.345499	-0.010616	-0.345566	-0.938379	0.005362	-0.008109	0.008700	0.999929	
3639														-0.078572	0.080856	9.816779	-0.938351	0.345521	-0.010614	-0.345588	-0.938371	0.005330	-0.008118	0.008670	0.999929	
3640														-0.078879	0.081296	9.816773	-0.938354	0.345512	-0.010634	-0.345580	-0.938374	0.005355	-0.008129	0.008700	0.999929	
3641														-0.079790	0.095885	9.801649	-0.938359	0.345500	-0.010618	-0.345568	-0.938379	0.005330	-0.008122	0.008670	0.999929	
3642														-0.079943	0.096179	9.801645	-0.938356	0.345508	-0.010614	-0.345575	-0.938376	0.005332	-0.008118	0.008671	0.999929	
3643														-0.109111	0.094323	9.786604	-0.938356	0.345508	-0.010609	-0.345575	-0.938376	0.005334	-0.008113	0.008671	0.999929	
3644														-0.080638	0.097927	9.830913	-0.938357	0.345505	-0.010584	-0.345572	-0.938377	0.005328	-0.008091	0.008657	0.999930	
3645														-0.080492	0.097832	9.816270	-0.938355	0.345512	-0.010579	-0.345579	-0.938374	0.005330	-0.008086	0.008657	0.999930	
3646														-0.065958	0.099198	9.816463	-0.938361	0.345497	-0.010560	-0.345564	-0.938380	0.005339	-0.008065	0.008659	0.999930	
3647														-0.079973	0.084582	9.831381	-0.938367	0.345479	-0.010555	-0.345547	-0.938386	0.005342	-0.008059	0.008660	0.999930	
3648														-0.095206	0.097702	9.801417	-0.938369	0.345474	-0.010545	-0.345541	-0.938389	0.005331	-0.008053	0.008646	0.999930	
3649														-0.079749	0.084309	9.802095	-0.938379	0.345448	-0.010519	-0.345515	-0.938398	0.005325	-0.008032	0.008632	0.999930	
3650														-0.079064	0.070467	9.817215	-0.938368	0.345480	-0.010497	-0.345546	-0.938387	0.005319	-0.008012	0.008618	0.999931	
3651														-0.079678	0.084431	9.787450	-0.938367	0.345482	-0.010501	-0.345549	-0.938386	0.005301	-0.008023	0.008603	0.999931	
3652														-0.066972	0.101748	9.831075	-0.938362	0.345493	-0.010512	-0.345560	-0.938382	0.005298	-0.008034	0.008604	0.999931	
3653														-0.094912	0.084783	9.801879	-0.938358	0.345507	-0.010479	-0.345574	-0.938377	0.005311	-0.007998	0.008605	0.999931	
3654														-0.079996	0.085615	9.787437	-0.938359	0.345504	-0.010455	-0.345570	-0.938378	0.005305	-0.007977	0.008591	0.999931	
3655														-0.081225	0.100921	9.801587	-0.938357	0.345511	-0.010438	-0.345577	-0.938376	0.005279	-0.007971	0.008561	0.999932	
3656														-0.081920	0.102309	9.830858	-0.938345	0.345542	-0.010460	-0.345609	-0.938364	0.005304	-0.007983	0.008592	0.999931	
3657														-0.079300	0.071154	9.758631	-0.938346	0.345539	-0.010473	-0.345604	-0.938366	0.005266	-0.008007	0.008561	0.999931	
3658														-0.080368	0.072938	9.802542	-0.938352	0.345522	-0.010489	-0.345588	-0.938371	0.005277	-0.008019	0.008577	0.999931	
3659														-0.083001	0.104031	9.845477	-0.938352	0.345524	-0.010450	-0.345590	-0.938371	0.005277	-0.007982	0.008563	0.999931	
3660														-0.083707	0.118541	9.830344	-0.938354	0.345518	-0.010445	-0.345584	-0.938373	0.005280	-0.007977	0.008564	0.999932	
3661														-0.081620	0.088958	9.802039	-0.938354	0.345518	-0.010465	-0.345584	-0.938373	0.005304	-0.007988	0.008594	0.999931	
3662														-0.082087	0.089952	9.816671	-0.938349	0.345531	-0.010455	-0.345597	-0.938368	0.005292	-0.007982	0.008580	0.999931	
3663														-0.083332	0.105337	9.830814	-0.938354	0.345520	-0.010432	-0.345585	-0.938372	0.005287	-0.007962	0.008566	0.999932	
3664														-0.067550	0.091154	9.802224	-0.938354	0.345518	-0.010461	-0.345584	-0.938373	0.005293	-0.007988	0.008581	0.999931	
3665														-0.082549	0.090648	9.802015	-0.938357	0.345508	-0.010466	-0.345574	-0.938377	0.005276	-0.007998	0.008567	0.999931	
3666														-0.082469	0.090462	9.787373	-0.938366	0.345485	-0.010442	-0.345551	-0.938385	0.005270	-0.007977	0.008554	0.999932	
3667														-0.083956	0.106403	9.816152	-0.938350	0.345530	-0.010437	-0.345596	-0.938369	0.005272	-0.007973	0.008554	0.999932	
3668														-0.082383	0.077547	9.817135	-0.938359	0.345503	-0.010456	-0.345569	-0.938379	0.005250	-0.007998	0.008540	0.999932	
3669														-0.068540	0.092433	9.787560	-0.938359	0.345505	-0.010446	-0.345570	-0.938378	0.005238	-0.007993	0.008525	0.999932	
3670														-0.083548	0.092408	9.801990	-0.938362	0.345497	-0.010448	-0.345562	-0.938381	0.005254	-0.007989	0.008541	0.999932	
3671														-0.068691	0.080156	9.831962	-0.938359	0.345504	-0.010451	-0.345569	-0.938379	0.005237	-0.007998	0.008526	0.999932	
3672														-0.068930	0.093543	9.787547	-0.938377	0.345458	-0.010392	-0.345523	-0.938396	0.005229	-0.007945	0.008498	0.999932	
3673														-0.084884	0.108051	9.801480	-0.938361	0.345499	-0.010435	-0.345565	-0.938380	0.005228	-0.007986	0.008512	0.999932	
3674														-0.069649	0.095551	9.816812	-0.938365	0.345491	-0.010385	-0.345556	-0.938383	0.005282	-0.007921	0.008545	0.999932	
3675														-0.084040	0.094634	9.801965	-0.938367	0.345483	-0.010404	-0.345549	-0.938386	0.005259	-0.007946	0.008530	0.999932	
3676														-0.084267	0.094926	9.801960	-0.938376	0.345461	-0.010379	-0.345526	-0.938394	0.005254	-0.007925	0.008516	0.999932	
3677														-0.084018	0.081655	9.831732	-0.938383	0.345440	-0.010403	-0.345505	-0.938402	0.005246	-0.007950	0.008516	0.999932	
3678														-0.070499	0.097100	9.816791	-0.938383	0.345440	-0.010407	-0.345505	-0.938402	0.005228	-0.007959	0.008502	0.999932	
3679														-0.070895	0.098032	9.831424	-0.938390	0.345421	-0.010393	-0.345486	-0.938409	0.005252	-0.007939	0.008519	0.999932	
3680														-0.071134	0.098625	9.831416	-0.938385	0.345433	-0.010423	-0.345499	-0.938404	0.005257	-0.007965	0.008534	0.999932	
3681														-0.071042	0.098086	9.802132	-0.938384	0.345436	-0.010428	-0.345501	-0.938404	0.005239	-0.007975	0.008519	0.999932	
3682														-0.085480	0.083780	9.831702	-0.938394	0.345411	-0.010430	-0.345476	-0.938413	0.005223	-0.007984	0.008504	0.999932	
3683														-0.071979	0.099725	9.831399	-0.938392	0.345415	-0.010412	-0.345480	-0.938411	0.005231	-0.007964	0.008506	0.999932	
3684														-0.085961	0.097734	9.787273	-0.938390	0.345422	-0.010409	-0.345487	-0.938409	0.005234	-0.007960	0.008507	0.999932	
3685														-0.070857	0.085026	9.802617	-0.938393	0.345413	-0.010419	-0.345478	-0.938412	0.005231	-0.007971	0.008508	0.999932	
3686														-0.086832	0.099600	9.816537	-0.938388	0.345426	-0.010401	-0.345491	-0.938407	0.005238	-0.007951	0.008509	0.999932	
3687														-0.071893	0.099956	9.787462	-0.938401	0.345392	-0.010403	-0.345457	-0.938420	0.005222	-0.007959	0.008494	0.999932	
3688														-0.085122	0.070624	9.802902	-0.938402	0.345389	-0.010413	-0.345454	-0.938421	0.005219	-0.007969	0.008495	0.999932	
3689														-0.087530	0.100774	9.816519	-0.938390	0.345421	-0.010408	-0.345486	-0.938410	0.005221	-0.007964	0.008495	0.999932	
3690														-0.071384	0.086103	9.773315	-0.938395	0.345407	-0.010404	-0.345472	-0.938414	0.005224	-0.007959	0.008497	0.999932	
3691														-0.086880	0.087053	9.817016	-0.938390	0.345423	-0.010400	-0.345488	-0.938409	0.005226	-0.007954	0.008497	0.999932	
3692														-0.086792	0.086927	9.802374	-0.938406	0.345379	-0.010390	-0.345444	-0.938425	0.005216	-0.007948	0.008484	0.999932	
3693														-0.076024	0.087992	9.802526	-0.938407	0.345375	-0.010402	-0.345440	-0.938426	0.005219	-0.007959	0.008491	0.999932	
3694														-0.065255	0.089057	9.802678	-0.938409	0.345370	-0.010415	-0.345435	-0.938428	0.005223	-0.007970	0.008499	0.999932	
3695														-0.073118	0.089803	9.817202	-0.938408	0.345372	-0.010397	-0.345437	-0.938427	0.005231	-0.007950	0.008501	0.999932	
3696														-0.072866	0.089324	9.787920	-0.938416	0.345350	-0.010426	-0.345415	-0.938435	0.005237	-0.007975	0.008516	0.999932	
3697														-0.073268	0.090341	9.802552	-0.938422	0.345336	-0.010393	-0.345401	-0.938440	0.005252	-0.007940	0.008518	0.999932	
3698														-0.073183	0.090286	9.787908	-0.938417	0.345348	-0.010417	-0.345414	-0.938436	0.005243	-0.007965	0.008518	0.999932	
3699														-0.087612	0.076056	9.817484	-0.938415	0.345353	-0.010406	-0.345419	-0.938434	0.005231	-0.007959	0.008504	0.999932	
3700														-0.088751	0.091106	9.816963	-0.938407	0.345374	-0.010409	-0.345439	-0.938427	0.005248	-0.007956	0.008520	0.999932	
3701														-0.072994	0.077434	9.803047	-0.938416	0.345352	-0.010385	-0.345417	-0.938435	0.005242	-0.007935	0.008507	0.999932	
3702														-0.075117	0.107091	9.802008	-0.938416	0.345351	-0.010400	-0.345416	-0.938435	0.005253	-0.007945	0.008522	0.999932	
3703														-0.088985	0.092083	9.802307	-0.938414	0.345357	-0.010402	-0.345422	-0.938433	0.005270	-0.007941	0.008539	0.999932	
3704														-0.088475	0.078346	9.817458	-0.938421	0.345336	-0.010400	-0.345402	-0.938440	0.005239	-0.007950	0.008509	0.999932	
3705														-0.076214	0.108840	9.816625	-0.938412	0.345362	-0.010424	-0.345427	-0.938431	0.005230	-0.007976	0.008509	0.999932	
3706														-0.074403	0.080222	9.817658	-0.938411	0.345363	-0.010403	-0.345429	-0.938430	0.005272	-0.007941	0.008541	0.999932	
3707														-0.045087	0.082157	9.803440	-0.938421	0.345337	-0.010414	-0.345403	-0.938440	0.005235	-0.007965	0.008510	0.999932	
3708														-0.074932	0.080880	9.817648	-0.938424	0.345328	-0.010417	-0.345394	-0.938443	0.005218	-0.007974	0.008495	0.999932	
3709														-0.061538	0.096779	9.817335	-0.938433	0.345306	-0.010406	-0.345371	-0.938452	0.005207	-0.007967	0.008481	0.999932	
3710														-0.074891	0.080527	9.788364	-0.938432	0.345307	-0.010416	-0.345372	-0.938451	0.005204	-0.007978	0.008481	0.999932	
3711														-0.061675	0.096936	9.802689	-0.938425	0.345327	-0.010386	-0.345392	-0.938444	0.005184	-0.007957	0.008452	0.999933	
3712														-0.062232	0.097884	9.817320	-0.938426	0.345322	-0.010436	-0.345387	-0.938446	0.005197	-0.007999	0.008482	0.999932	
3713														-0.090492	0.080685	9.788133	-0.938424	0.345327	-0.010448	-0.345392	-0.938444	0.005160	-0.008023	0.008451	0.999932	
3714														-0.091043	0.081481	9.802765	-0.938427	0.345319	-0.010444	-0.345384	-0.938447	0.005163	-0.008018	0.008452	0.999932	
3715														-0.076843	0.083591	9.817611	-0.938436	0.345296	-0.010451	-0.345361	-0.938455	0.005194	-0.008014	0.008483	0.999932	
3716														-0.075750	0.068996	9.803494	-0.938436	0.345294	-0.010440	-0.345359	-0.938456	0.005183	-0.008008	0.008469	0.999932	
3717														-0.078236	0.099083	9.817073	-0.938434	0.345302	-0.010450	-0.345367	-0.938454	0.005180	-0.008019	0.008470	0.999932	
3718														-0.093082	0.098512	9.816851	-0.938435	0.345298	-0.010446	-0.345363	-0.938455	0.005182	-0.008013	0.008471	0.999932	
3719														-0.076796	0.071275	9.832756	-0.938444	0.345274	-0.010426	-0.345339	-0.938464	0.005191	-0.007992	0.008473	0.999932	
3720														-0.078456	0.099754	9.802420	-0.938447	0.345266	-0.010424	-0.345330	-0.938467	0.005160	-0.008001	0.008442	0.999932	
3721														-0.074087	0.089278	9.802869	-0.938445	0.345271	-0.010396	-0.345336	-0.938465	0.005164	-0.007973	0.008436	0.999933	
3722														-0.069718	0.078803	9.803317	-0.938444	0.345277	-0.010367	-0.345341	-0.938463	0.005168	-0.007944	0.008430	0.999933	
3723														-0.093159	0.099781	9.802193	-0.938453	0.345252	-0.010361	-0.345316	-0.938472	0.005171	-0.007938	0.008431	0.999933	
3724														-0.048724	0.089194	9.818004	-0.938451	0.345257	-0.010358	-0.345321	-0.938470	0.005174	-0.007934	0.008432	0.999933	
3725														-0.093402	0.100669	9.802181	-0.938454	0.345249	-0.010339	-0.345313	-0.938473	0.005183	-0.007914	0.008434	0.999933	
3726														-0.063499	0.088997	9.817779	-0.938457	0.345242	-0.010328	-0.345306	-0.938476	0.005171	-0.007908	0.008419	0.999933	
3727														-0.092702	0.086950	9.802702	-0.938461	0.345230	-0.010349	-0.345294	-0.938480	0.005196	-0.007918	0.008450	0.999933	
3728														-0.063787	0.089438	9.803130	-0.938461	0.345229	-0.010347	-0.345293	-0.938481	0.005165	-0.007927	0.008419	0.999933	
3729														-0.063766	0.089363	9.788487	-0.938450	0.345261	-0.010355	-0.345325	-0.938469	0.005195	-0.007924	0.008451	0.999933	
3730														-0.064589	0.090989	9.817754	-0.938451	0.345256	-0.010380	-0.345321	-0.938470	0.005186	-0.007951	0.008451	0.999933	
3731														-0.080453	0.105006	9.816994	-0.938453	0.345251	-0.010361	-0.345315	-0.938472	0.005194	-0.007930	0.008453	0.999933	
3732														-0.079336	0.090327	9.802888	-0.938440	0.345288	-0.010372	-0.345352	-0.938459	0.005190	-0.007941	0.008453	0.999933	
3733														-0.080081	0.091810	9.832156	-0.938434	0.345302	-0.010367	-0.345367	-0.938454	0.005192	-0.007936	0.008453	0.999933	
3734														-0.064094	0.077642	9.803633	-0.938437	0.345294	-0.010363	-0.345358	-0.938456	0.005195	-0.007931	0.008454	0.999933	
3735														-0.065529	0.093137	9.817727	-0.938434	0.345304	-0.010352	-0.345368	-0.938453	0.005183	-0.007925	0.008439	0.999933	
3736														-0.079092	0.077495	9.803404	-0.938435	0.345299	-0.010373	-0.345364	-0.938455	0.005208	-0.007936	0.008470	0.999933	
3737														-0.081893	0.108188	9.831592	-0.938440	0.345286	-0.010356	-0.345350	-0.938460	0.005183	-0.007929	0.008441	0.999933	
3738														-0.079552	0.078302	9.803394	-0.938434	0.345303	-0.010371	-0.345368	-0.938453	0.005194	-0.007940	0.008456	0.999933	
3739														-0.065615	0.094555	9.803070	-0.938413	0.345362	-0.010261	-0.345426	-0.938431	0.005256	-0.007814	0.008477	0.999934	
3740														-0.065432	0.095395	9.817706	-0.938391	0.345425	-0.010240	-0.345488	-0.938409	0.005215	-0.007808	0.008432	0.999934	
3741														-0.079426	0.092999	9.773574	-0.938388	0.345431	-0.010236	-0.345495	-0.938406	0.005218	-0.007804	0.008433	0.999934	
3742														-0.079579	0.080945	9.832659	-0.938386	0.345438	-0.010231	-0.345502	-0.938404	0.005220	-0.007797	0.008433	0.999934	
3743														-0.201526	0.145479	9.813547	-0.938285	0.345712	-0.010225	-0.345775	-0.938303	0.005205	-0.007794	0.008419	0.999934	
3744														-0.401257	0.262463	9.776486	-0.938774	0.344379	-0.010356	-0.344443	-0.938793	0.005165	-0.007943	0.008416	0.999933	
3745														0.330764	-0.138189	9.833250	-0.939262	0.343043	-0.010382	-0.343106	-0.939283	0.005069	-0.008013	0.008324	0.999933	
3746														-0.038163	0.083779	9.804024	-0.939073	0.343562	-0.010386	-0.343625	-0.939093	0.005064	-0.008014	0.008324	0.999933	
3747														-0.157160	0.104284	9.786507	-0.938967	0.343851	-0.010400	-0.343915	-0.938987	0.005056	-0.008027	0.008324	0.999933	
3748														-0.130102	0.122971	9.830309	-0.939125	0.343419	-0.010398	-0.343482	-0.939146	0.005046	-0.008032	0.008310	0.999933	
3749														0.007384	0.058491	9.791139	-0.939260	0.343050	-0.010373	-0.343113	-0.939280	0.005059	-0.008008	0.008311	0.999933	
3750														-0.039372	0.085887	9.818643	-0.939457	0.342509	-0.010397	-0.342573	-0.939478	0.005039	-0.008042	0.008295	0.999933	
3751														-0.038771	0.071747	9.819185	-0.939581	0.342167	-0.010422	-0.342230	-0.939603	0.005050	-0.008065	0.008312	0.999933	
3752														-0.055584	0.099760	9.803222	-0.939630	0.342034	-0.010410	-0.342097	-0.939651	0.005041	-0.008057	0.008297	0.999933	
3753														-0.069482	0.084664	9.818181	-0.939740	0.341734	-0.010378	-0.341797	-0.939761	0.004992	-0.008047	0.008238	0.999934	
3754														-0.100130	0.097097	9.817178	-0.939907	0.341273	-0.010404	-0.341336	-0.939928	0.004970	-0.008083	0.008223	0.999934	
3755														-0.086497	0.111883	9.787577	-0.940282	0.340238	-0.010381	-0.340301	-0.940304	0.004941	-0.008081	0.008179	0.999934	
3756														-0.025374	0.073811	9.819400	-0.940578	0.339419	-0.010353	-0.339481	-0.940600	0.004929	-0.008066	0.008150	0.999934	
3757														-0.070416	0.085277	9.818169	-0.940674	0.339154	-0.010345	-0.339216	-0.940695	0.004935	-0.008058	0.008151	0.999934	
3758														-0.084142	0.069894	9.818489	-0.940789	0.338835	-0.010359	-0.338897	-0.940811	0.004917	-0.008080	0.008136	0.999934	
3759														-0.070438	0.085103	9.788885	-0.940878	0.338588	-0.010361	-0.338650	-0.940899	0.004951	-0.008072	0.008167	0.999934	
3760														-0.071272	0.086684	9.818151	-0.940911	0.338496	-0.010377	-0.338558	-0.940933	0.004929	-0.008096	0.008151	0.999934	
3761														-0.059584	0.117249	9.817266	-0.941014	0.338207	-0.010414	-0.338269	-0.941037	0.004885	-0.008148	0.008119	0.999934	
3762														-0.042934	0.089697	9.818594	-0.941127	0.337894	-0.010389	-0.337956	-0.941149	0.004932	-0.008112	0.008153	0.999934	
3763														-0.043147	0.090838	9.833225	-0.941012	0.338215	-0.010376	-0.338277	-0.941033	0.004935	-0.008096	0.008154	0.999934	
3764														-0.056138	0.074436	9.804276	-0.940964	0.338349	-0.010374	-0.338411	-0.940985	0.004935	-0.008092	0.008155	0.999934	
3765														-0.016905	0.136270	9.788096	-0.941169	0.337778	-0.010363	-0.337840	-0.941191	0.004947	-0.008082	0.008157	0.999934	
3766														0.029571	0.097295	9.819719	-0.941538	0.336746	-0.010358	-0.336808	-0.941561	0.004879	-0.008109	0.008082	0.999934	
3767														-0.000628	0.108353	9.789435	-0.941878	0.335796	-0.010334	-0.335858	-0.941900	0.004848	-0.008106	0.008037	0.999935	
3768														-0.071671	0.073178	9.789400	-0.942286	0.334648	-0.010373	-0.334709	-0.942309	0.004811	-0.008164	0.008006	0.999935	
3769														-0.128746	0.040753	9.833500	-0.942856	0.333040	-0.010333	-0.333101	-0.942879	0.004812	-0.008140	0.007979	0.999935	
3770														0.042002	0.113193	9.790112	-0.943294	0.331797	-0.010349	-0.331858	-0.943317	0.004851	-0.008153	0.008011	0.999935	
3771														-0.016222	0.095097	9.819017	-0.943725	0.330567	-0.010386	-0.330628	-0.943749	0.004817	-0.008210	0.007980	0.999934	
3772														0.044093	0.072102	9.835689	-0.943987	0.329819	-0.010356	-0.329880	-0.944010	0.004836	-0.008181	0.007982	0.999935	
3773														0.066004	0.162120	9.818150	-0.943916	0.330027	-0.010278	-0.330087	-0.943938	0.004849	-0.008102	0.007970	0.999935	
3774														0.110165	0.165107	9.789567	-0.943783	0.330404	-0.010333	-0.330464	-0.943806	0.004775	-0.008175	0.007921	0.999935	
3775														0.009293	0.127938	9.818347	-0.944004	0.329770	-0.010370	-0.329830	-0.944028	0.004750	-0.008223	0.007905	0.999935	
3776														-0.093500	0.119809	9.831354	-0.944512	0.328312	-0.010361	-0.328373	-0.944536	0.004819	-0.008205	0.007954	0.999935	
3777														-0.011250	0.186567	9.830490	-0.944856	0.327325	-0.010272	-0.327385	-0.944879	0.004783	-0.008141	0.007882	0.999936	
3778														0.034829	0.322717	9.811720	-0.944900	0.327197	-0.010331	-0.327257	-0.944923	0.004745	-0.008209	0.007864	0.999935	
3779														0.049333	0.323526	9.782666	-0.944895	0.327211	-0.010351	-0.327271	-0.944918	0.004770	-0.008220	0.007894	0.999935	
3780														0.145769	0.230868	9.802624	-0.945677	0.324944	-0.010289	-0.325004	-0.945701	0.004752	-0.008187	0.007838	0.999936	
3781														-0.081612	-0.010333	9.821769	-0.946934	0.321263	-0.010322	-0.321323	-0.946957	0.004842	-0.008219	0.007902	0.999935	
3782														0.078741	0.153227	9.804256	-0.948418	0.316858	-0.010257	-0.316918	-0.948441	0.004848	-0.008192	0.007848	0.999936	
3783														0.009114	0.381980	9.794500	-0.950131	0.311681	-0.010290	-0.311741	-0.950155	0.004807	-0.008278	0.007775	0.999936	
3784														-0.102094	0.297374	9.824738	-0.952075	0.305692	-0.010244	-0.305752	-0.952099	0.004821	-0.008279	0.007722	0.999936	
3785														-0.002659	0.072412	9.805688	-0.953634	0.300794	-0.010241	-0.300854	-0.953658	0.004840	-0.008310	0.007697	0.999936	
3786														-0.044708	-0.065525	9.795235	-0.955445	0.294991	-0.010252	-0.295050	-0.955469	0.004863	-0.008361	0.007671	0.999936	
3787														-0.154955	-0.241013	9.828680	-0.957063	0.289698	-0.010268	-0.289757	-0.957088	0.004863	-0.008418	0.007630	0.999935	
3788														-0.071052	0.020520	9.806224	-0.958535	0.284792	-0.010227	-0.284852	-0.958559	0.004865	-0.008418	0.007576	0.999936	
3789														-0.033902	0.174665	9.816076	-0.959986	0.279862	-0.010217	-0.279921	-0.960010	0.004952	-0.008422	0.007614	0.999936	
3790														-0.148874	0.143999	9.829419	-0.961460	0.274756	-0.010189	-0.274815	-0.961484	0.004917	-0.008446	0.007527	0.999936	
3791														-0.121946	0.160643	9.785402	-0.962913	0.269619	-0.010152	-0.269678	-0.962938	0.004902	-0.008454	0.007458	0.999936	
3792														-0.125674	0.175922	9.814094	-0.964409	0.264220	-0.010128	-0.264279	-0.964434	0.004931	-0.008465	0.007432	0.999937	
3793														0.029843	0.037928	9.807839	-0.965954	0.258514	-0.010123	-0.258572	-0.965979	0.004942	-0.008501	0.007392	0.999937	
3794														0.054115	-0.194587	9.831425	-0.967501	0.252665	-0.010116	-0.252723	-0.967527	0.004861	-0.008559	0.007260	0.999937	
3795														0.072770	-0.041241	9.841018	-0.969000	0.246855	-0.010075	-0.246913	-0.969025	0.005002	-0.008528	0.007335	0.999937	
3796														0.019909	0.172364	9.802877	-0.970516	0.240826	-0.010039	-0.240883	-0.970541	0.004981	-0.008544	0.007253	0.999937	
3797														-0.003018	0.363626	9.824874	-0.972148	0.234155	-0.010006	-0.234212	-0.972173	0.005013	-0.008553	0.007217	0.999937	
3798														0.044640	0.042378	9.749516	-0.973917	0.226685	-0.009999	-0.226743	-0.973942	0.005030	-0.008598	0.007166	0.999937	
3799														-0.010766	-0.129460	9.827675	-0.975382	0.220300	-0.009932	-0.220357	-0.975406	0.005087	-0.008567	0.007151	0.999938	
3800														-0.020344	0.062725	9.805975	-0.976966	0.213165	-0.009923	-0.213222	-0.976991	0.005070	-0.008614	0.007069	0.999938	
3801														-0.110314	0.193569	9.813892	-0.978523	0.205897	-0.009956	-0.205954	-0.978549	0.005040	-0.008705	0.006982	0.999938	
3802														-0.102988	0.285860	9.825496	-0.979906	0.199214	-0.009863	-0.199271	-0.979931	0.005079	-0.008653	0.006942	0.999938	
3803														-0.213783	0.047901	9.801833	-0.981323	0.192115	-0.009866	-0.192171	-0.981349	0.005042	-0.008714	0.006844	0.999939	
3804														0.063228	0.023373	9.794798	-0.982797	0.184429	-0.009793	-0.184484	-0.982822	0.005052	-0.008693	0.006771	0.999939	
3805														-0.005041	0.113851	9.819311	-0.984051	0.177619	-0.009768	-0.177674	-0.984076	0.005054	-0.008715	0.006709	0.999940	
3806														-0.129139	0.006813	9.819940	-0.985231	0.170951	-0.009749	-0.171006	-0.985257	0.005116	-0.008730	0.006707	0.999939	
3807														-0.076933	0.095522	9.803525	-0.986345	0.164407	-0.009728	-0.164461	-0.986371	0.005065	-0.008763	0.006596	0.999940	
3808														-0.337274	-0.066553	9.817112	-0.987437	0.157717	-0.009710	-0.157771	-0.987463	0.005079	-0.008787	0.006548	0.999940	
3809														-0.322453	-0.063942	9.817354	-0.988410	0.151504	-0.009644	-0.151558	-0.988435	0.005168	-0.008750	0.006569	0.999940	
3810														-0.197098	0.030632	9.802646	-0.989245	0.145951	-0.009653	-0.146004	-0.989271	0.005034	-0.008815	0.006390	0.999941	
3811														-0.201724	0.044451	9.816695	-0.989956	0.141050	-0.009592	-0.141104	-0.989981	0.005154	-0.008769	0.006456	0.999941	
3812														-0.123695	-0.009896	9.791264	-0.990618	0.136326	-0.009546	-0.136379	-0.990643	0.005156	-0.008754	0.006410	0.999941	
3813														-0.120643	-0.070126	9.793390	-0.991261	0.131566	-0.009562	-0.131619	-0.991287	0.005205	-0.008793	0.006418	0.999941	
3814														-0.105367	0.027656	9.819805	-0.991902	0.126648	-0.009563	-0.126701	-0.991928	0.005163	-0.008832	0.006333	0.999941	
3815														-0.045484	0.030787	9.821293	-0.992561	0.121372	-0.009556	-0.121425	-0.992587	0.005112	-0.008865	0.006234	0.999941	
3816														-0.289252	0.213480	9.793921	-0.993188	0.116120	-0.009638	-0.116173	-0.993216	0.005147	-0.008975	0.006232	0.999940	
3817														-0.045698	0.170647	9.816645	-0.993705	0.111618	-0.009559	-0.111672	-0.993731	0.005235	-0.008914	0.006270	0.999941	
3818														-0.036329	0.049716	9.791649	-0.994262	0.106542	-0.009545	-0.106595	-0.994289	0.005201	-0.008936	0.006189	0.999941	
3819														-0.143487	-0.093165	9.822808	-0.994776	0.101630	-0.009551	-0.101683	-0.994803	0.005223	-0.008970	0.006167	0.999941	
3820														-0.383538	-0.114682	9.802193	-0.995191	0.097484	-0.009560	-0.097536	-0.995218	0.005204	-0.009007	0.006111	0.999941	
3821														-0.255540	0.007920	9.830983	-0.995497	0.094322	-0.009473	-0.094375	-0.995522	0.005342	-0.008927	0.006212	0.999941	
3822														-0.264545	0.035088	9.815165	-0.995787	0.091203	-0.009465	-0.091256	-0.995813	0.005299	-0.008942	0.006141	0.999941	
3823														-0.174589	-0.088822	9.821788	-0.996022	0.088607	-0.009473	-0.088659	-0.996048	0.005279	-0.008968	0.006098	0.999941	
3824														-0.152298	-0.018774	9.805444	-0.996208	0.086489	-0.009439	-0.086542	-0.996233	0.005421	-0.008935	0.006218	0.999941	
3825														-0.228541	0.062840	9.800584	-0.996370	0.084599	-0.009490	-0.084651	-0.996397	0.005271	-0.009010	0.006055	0.999941	
3826														-0.174666	0.083349	9.830744	-0.996503	0.083019	-0.009444	-0.083072	-0.996529	0.005332	-0.008969	0.006098	0.999941	
3827														-0.087687	0.145457	9.801836	-0.996627	0.081515	-0.009466	-0.081568	-0.996653	0.005342	-0.008999	0.006096	0.999941	
3828														-0.061194	0.030351	9.791768	-0.996751	0.079997	-0.009425	-0.080050	-0.996776	0.005353	-0.008967	0.006091	0.999941	
3829														-0.099285	-0.121844	9.825104	-0.996859	0.078631	-0.009454	-0.078685	-0.996885	0.005440	-0.008997	0.006166	0.999941	
3830														-0.077733	-0.051891	9.794102	-0.996957	0.077373	-0.009480	-0.077427	-0.996983	0.005446	-0.009030	0.006164	0.999940	
3831														-0.059195	0.065313	9.805406	-0.997062	0.076007	-0.009511	-0.076060	-0.997088	0.005422	-0.009071	0.006129	0.999940	
3832														0.022446	0.221936	9.817220	-0.997182	0.074408	-0.009550	-0.074462	-0.997209	0.005445	-0.009118	0.006140	0.999940	
3833														-0.048085	0.117028	9.789392	-0.997307	0.072715	-0.009595	-0.072769	-0.997334	0.005436	-0.009174	0.006120	0.999939	
3834														-0.035047	-0.002087	9.808420	-0.997430	0.071009	-0.009532	-0.071063	-0.997457	0.005440	-0.009121	0.006103	0.999940	
3835														-0.098433	0.083935	9.803723	-0.997553	0.069270	-0.009510	-0.069325	-0.997579	0.005480	-0.009107	0.006126	0.999940	
3836														-0.068191	0.127220	9.803175	-0.997682	0.067375	-0.009544	-0.067429	-0.997709	0.005445	-0.009155	0.006076	0.999940	
3837														-0.108325	0.065818	9.818728	-0.997801	0.065589	-0.009554	-0.065642	-0.997828	0.005431	-0.009177	0.006046	0.999940	
3838														-0.205017	-0.050240	9.805106	-0.997905	0.063988	-0.009552	-0.064041	-0.997933	0.005418	-0.009186	0.006018	0.999940	
3839														-0.134518	0.009738	9.834506	-0.997998	0.062526	-0.009538	-0.062579	-0.998025	0.005406	-0.009181	0.005992	0.999940	
3840														-0.125410	0.027971	9.804851	-0.998090	0.061032	-0.009531	-0.061086	-0.998118	0.005424	-0.009182	0.005996	0.999940	
3841														-0.035374	0.079261	9.805812	-0.998185	0.059461	-0.009518	-0.059514	-0.998213	0.005429	-0.009178	0.005986	0.999940	
3842														-0.103763	0.132219	9.816709	-0.998288	0.057703	-0.009533	-0.057756	-0.998316	0.005429	-0.009203	0.005970	0.999940	
3843														-0.024211	0.130942	9.789786	-0.998387	0.055977	-0.009459	-0.056029	-0.998415	0.005388	-0.009142	0.005909	0.999941	
3844														-0.011360	0.138078	9.819268	-0.998480	0.054296	-0.009426	-0.054350	-0.998507	0.005510	-0.009113	0.006013	0.999940	
3845														-0.087496	0.092199	9.803895	-0.998571	0.052599	-0.009445	-0.052652	-0.998598	0.005461	-0.009145	0.005950	0.999940	
3846														-0.036791	-0.075837	9.825672	-0.998659	0.050901	-0.009457	-0.050954	-0.998686	0.005445	-0.009168	0.005919	0.999940	
3847														-0.042737	0.016784	9.822432	-0.998746	0.049155	-0.009498	-0.049208	-0.998774	0.005423	-0.009220	0.005884	0.999940	
3848														-0.128272	0.109354	9.831465	-0.998836	0.047285	-0.009500	-0.047338	-0.998864	0.005381	-0.009235	0.005825	0.999940	
3849														-0.107769	0.021056	9.791029	-0.998922	0.045431	-0.009484	-0.045484	-0.998951	0.005391	-0.009229	0.005816	0.999940	
3850														-0.166468	0.125175	9.815140	-0.999016	0.043328	-0.009433	-0.043381	-0.999044	0.005411	-0.009190	0.005815	0.999941	
3851														-0.100644	0.041513	9.819904	-0.999115	0.040991	-0.009439	-0.041042	-0.999143	0.005357	-0.009212	0.005740	0.999941	
3852														-0.095563	0.105758	9.788613	-0.999210	0.038605	-0.009455	-0.038657	-0.999238	0.005350	-0.009241	0.005711	0.999941	
3853														-0.027301	0.168374	9.832620	-0.999305	0.036081	-0.009380	-0.036132	-0.999333	0.005365	-0.009180	0.005700	0.999942	
3854														0.011973	0.151734	9.790396	-0.999397	0.033413	-0.009406	-0.033465	-0.999426	0.005359	-0.009222	0.005670	0.999941	
3855														-0.080036	0.066001	9.805089	-0.999489	0.030543	-0.009427	-0.030593	-0.999518	0.005277	-0.009261	0.005563	0.999942	
3856														-0.030413	0.023576	9.808013	-0.999574	0.027641	-0.009390	-0.027691	-0.999603	0.005288	-0.009240	0.005546	0.999942	
3857														-0.058530	0.124908	9.833165	-0.999653	0.024628	-0.009385	-0.024679	-0.999681	0.005309	-0.009252	0.005539	0.999942	
3858														-0.069299	0.039661	9.806320	-0.999721	0.021661	-0.009393	-0.021712	-0.999750	0.005311	-0.009276	0.005513	0.999942	
3859														-0.046820	0.097563	9.805129	-0.999787	0.018413	-0.009337	-0.018463	-0.999816	0.005268	-0.009239	0.005439	0.999943	
3860														0.081904	0.059316	9.810422	-0.999846	0.014849	-0.009397	-0.014900	-0.999875	0.005344	-0.009316	0.005483	0.999942	
3861														0.025055	-0.028836	9.811569	-0.999898	0.010740	-0.009371	-0.010790	-0.999927	0.005367	-0.009312	0.005468	0.999942	
3862														-0.237062	-0.018131	9.817629	-0.999931	0.007158	-0.009367	-0.007208	-0.999960	0.005301	-0.009329	0.005368	0.999942	
3863														-0.190730	-0.014480	9.804287	-0.999949	0.003809	-0.009377	-0.003859	-0.999979	0.005276	-0.009357	0.005312	0.999942	
3864														-0.303464	-0.050285	9.801863	-0.999956	0.000740	-0.009381	-0.000791	-0.999985	0.005343	-0.009377	0.005350	0.999942	
3865														-0.111445	0.022735	9.805624	-0.999955	-0.001689	-0.009380	0.001639	-0.999984	0.005325	-0.009389	0.005309	0.999942	
3866														-0.086952	0.245889	9.828534	-0.999947	-0.004243	-0.009353	0.004193	-0.999977	0.005346	-0.009376	0.005307	0.999942	
3867														0.149227	0.225937	9.792777	-0.999937	-0.006282	-0.009333	0.006233	-0.999967	0.005280	-0.009366	0.005222	0.999943	
3868														-0.291703	-0.110836	9.804141	-0.999917	-0.008823	-0.009376	0.008773	-0.999947	0.005332	-0.009422	0.005249	0.999942	
3869														-0.093114	0.016373	9.821101	-0.999891	-0.011411	-0.009320	0.011363	-0.999922	0.005221	-0.009378	0.005114	0.999943	
3870														-0.098906	0.028587	9.805842	-0.999860	-0.013874	-0.009314	0.013827	-0.999891	0.005188	-0.009385	0.005058	0.999943	
3871														-0.098730	0.061409	9.804807	-0.999826	-0.016151	-0.009323	0.016103	-0.999857	0.005198	-0.009405	0.005047	0.999943	
3872														-0.053147	0.067633	9.806103	-0.999789	-0.018334	-0.009311	0.018286	-0.999819	0.005179	-0.009404	0.005008	0.999943	
3873														0.032338	0.158205	9.806016	-0.999744	-0.020612	-0.009354	0.020566	-0.999776	0.005057	-0.009456	0.004863	0.999943	
3874														0.095776	0.059958	9.825908	-0.999689	-0.023095	-0.009369	0.023048	-0.999722	0.005052	-0.009483	0.004835	0.999943	
3875														-0.048664	0.021863	9.822394	-0.999629	-0.025608	-0.009325	0.025561	-0.999660	0.005061	-0.009451	0.004821	0.999944	
3876														0.018118	0.020535	9.780654	-0.999558	-0.028232	-0.009345	0.028186	-0.999590	0.005011	-0.009483	0.004746	0.999944	
3877														-0.094938	0.048148	9.820051	-0.999480	-0.030872	-0.009330	0.030826	-0.999512	0.005015	-0.009480	0.004725	0.999944	
3878														-0.023285	0.133664	9.819734	-0.999381	-0.033920	-0.009282	0.033875	-0.999414	0.004984	-0.009445	0.004667	0.999945	
3879														0.003161	0.113826	9.806585	-0.999261	-0.037315	-0.009274	0.037270	-0.999293	0.004948	-0.009452	0.004599	0.999945	
3880														0.243876	0.189485	9.826924	-0.999128	-0.040725	-0.009214	0.040680	-0.999160	0.004956	-0.009408	0.004577	0.999945	
3881														-0.251424	0.031872	9.800655	-0.998957	-0.044733	-0.009178	0.044689	-0.998989	0.004903	-0.009388	0.004488	0.999946	
3882														-0.173425	0.039717	9.817672	-0.998755	-0.049040	-0.009138	0.048997	-0.998787	0.004934	-0.009369	0.004480	0.999946	
3883														-0.142619	0.138281	9.800988	-0.998533	-0.053365	-0.009127	0.053321	-0.998565	0.004972	-0.009380	0.004478	0.999946	
3884														-0.111570	0.139799	9.831327	-0.998307	-0.057441	-0.009116	0.057398	-0.998339	0.004902	-0.009383	0.004370	0.999946	
3885														0.149632	0.180190	9.809635	-0.998064	-0.061533	-0.009073	0.061489	-0.998095	0.004978	-0.009362	0.004410	0.999946	
3886														0.551275	0.300811	9.805004	-0.997814	-0.065454	-0.009080	0.065411	-0.997846	0.004979	-0.009386	0.004374	0.999946	
3887														-0.203028	-0.060657	9.819729	-0.997513	-0.069909	-0.009025	0.069866	-0.997544	0.004967	-0.009350	0.004324	0.999947	
3888														-0.110149	-0.009167	9.821334	-0.997094	-0.075438	-0.009004	0.075395	-0.997126	0.004948	-0.009351	0.004254	0.999947	
3889														-0.017270	0.042324	9.822938	-0.996676	-0.080966	-0.008983	0.080924	-0.996708	0.004928	-0.009352	0.004185	0.999948	
3890														0.044724	0.009545	9.796763	-0.996153	-0.087186	-0.008862	0.087144	-0.996183	0.004983	-0.009263	0.004192	0.999948	
3891														-0.068802	-0.056050	9.794792	-0.995559	-0.093727	-0.008855	0.093687	-0.995590	0.004932	-0.009278	0.004080	0.999949	
3892														-0.055642	0.037127	9.807117	-0.994915	-0.100333	-0.008801	0.100292	-0.994946	0.004968	-0.009255	0.004060	0.999949	
3893														-0.188655	-0.025169	9.804305	-0.994256	-0.106671	-0.008739	0.106631	-0.994286	0.005029	-0.009225	0.004068	0.999949	
3894														-0.289087	0.083509	9.782854	-0.993607	-0.112555	-0.008758	0.112514	-0.993638	0.004974	-0.009262	0.003957	0.999949	
3895														-0.159427	0.232574	9.812381	-0.992987	-0.117903	-0.008732	0.117863	-0.993018	0.004938	-0.009253	0.003874	0.999950	
3896														-0.015347	0.165925	9.790161	-0.992257	-0.123899	-0.008699	0.123860	-0.992288	0.004930	-0.009243	0.003814	0.999950	
3897														-0.056519	0.036993	9.807112	-0.991454	-0.130166	-0.008704	0.130128	-0.991486	0.004814	-0.009257	0.003640	0.999951	
3898														-0.025124	-0.013159	9.809667	-0.990594	-0.136558	-0.008682	0.136520	-0.990626	0.004732	-0.009247	0.003502	0.999951	
3899														-0.104773	0.161680	9.801808	-0.989698	-0.142904	-0.008771	0.142868	-0.989731	0.004648	-0.009345	0.003347	0.999951	
3900														-0.088580	0.134914	9.759187	-0.988749	-0.149329	-0.008766	0.149293	-0.988782	0.004565	-0.009350	0.003205	0.999951	
3901														-0.115437	0.013364	9.805595	-0.987724	-0.155960	-0.008808	0.155926	-0.987759	0.004513	-0.009404	0.003085	0.999951	
3902														-0.184941	-0.015800	9.818491	-0.986614	-0.162841	-0.008750	0.162806	-0.986648	0.004553	-0.009374	0.003068	0.999951	
3903														-0.108020	0.053547	9.804755	-0.985481	-0.169563	-0.008705	0.169529	-0.985515	0.004543	-0.009349	0.003001	0.999952	
3904														-0.099081	-0.011807	9.806870	-0.984350	-0.176005	-0.008783	0.175971	-0.984385	0.004499	-0.009437	0.002883	0.999951	
3905														0.108466	-0.026492	9.815031	-0.983157	-0.182554	-0.008705	0.182521	-0.983192	0.004432	-0.009368	0.002769	0.999952	
3906														0.521293	0.001890	9.829915	-0.981752	-0.189957	-0.008915	0.189925	-0.981789	0.004370	-0.009583	0.002597	0.999951	
3907														0.442689	-0.015403	9.813027	-0.979897	-0.199285	-0.009307	0.199254	-0.979939	0.004134	-0.009944	0.002196	0.999948	
3908														0.380575	0.017527	9.839385	-0.977749	-0.209563	-0.009465	0.209533	-0.977793	0.004073	-0.010109	0.001999	0.999947	
3909														0.068092	0.019603	9.768637	-0.975447	-0.220027	-0.009529	0.219996	-0.975492	0.004146	-0.010208	0.001948	0.999946	
3910														0.070276	-0.008801	9.857491	-0.972877	-0.231127	-0.009545	0.231097	-0.972922	0.004155	-0.010247	0.001837	0.999946	
3911														0.141055	-0.421499	9.841127	-0.970258	-0.241890	-0.009451	0.241859	-0.970302	0.004238	-0.010195	0.001826	0.999946	
3912														-0.154263	-0.005463	9.760499	-0.967796	-0.251561	-0.009380	0.251530	-0.967840	0.004347	-0.010172	0.001848	0.999947	
3913														-0.364771	-0.120871	9.842745	-0.964932	-0.262336	-0.009251	0.262306	-0.964975	0.004368	-0.010073	0.001789	0.999948	
3914														-0.325385	0.079708	9.810156	-0.961892	-0.273275	-0.009250	0.273245	-0.961935	0.004301	-0.010073	0.001610	0.999948	
3915														-0.003094	0.241594	9.790176	-0.958599	-0.284610	-0.009194	0.284582	-0.958642	0.004253	-0.010024	0.001460	0.999949	
3916														-0.158075	0.103999	9.787033	-0.954913	-0.296744	-0.009194	0.296718	-0.954956	0.004164	-0.010015	0.001248	0.999949	
3917														-0.138296	-0.137376	9.807814	-0.950773	-0.309750	-0.009220	0.309725	-0.950818	0.004073	-0.010028	0.001017	0.999949	
3918														-0.222696	-0.100338	9.810729	-0.944437	-0.327998	-0.009131	0.327974	-0.944481	0.004000	-0.009936	0.000785	0.999950	
3919														-0.264895	-0.081819	9.812186	-0.941269	-0.337122	-0.009087	0.337099	-0.941312	0.003964	-0.009889	0.000670	0.999951	
3920														-0.285995	-0.072559	9.812915	-0.939684	-0.341684	-0.009065	0.341661	-0.939728	0.003946	-0.009866	0.000612	0.999951	
3921														-0.307095	-0.063300	9.813643	-0.938100	-0.346246	-0.009042	0.346224	-0.938144	0.003928	-0.009843	0.000554	0.999951	
3922														-0.361826	0.164901	9.806581	-0.934770	-0.355141	-0.008990	0.355120	-0.934813	0.003907	-0.009791	0.000460	0.999952	
3923														-0.084969	0.261500	9.801750	-0.931698	-0.363126	-0.008901	0.363105	-0.931740	0.003965	-0.009733	0.000462	0.999953	
3924														-0.140661	0.236244	9.810918	-0.928243	-0.371752	-0.008908	0.371731	-0.928286	0.003925	-0.009728	0.000332	0.999953	
3925														-0.196354	0.210988	9.820085	-0.924789	-0.380377	-0.008915	0.380357	-0.924831	0.003886	-0.009722	0.000203	0.999953	
3926														0.044897	0.215191	9.808426	-0.921222	-0.388936	-0.008855	0.388917	-0.921265	0.003889	-0.009670	0.000139	0.999953	
3927														-0.093715	0.063354	9.819976	-0.917605	-0.397396	-0.008819	0.397377	-0.917647	0.003922	-0.009652	0.000095	0.999953	
3928														-0.102372	-0.124307	9.822978	-0.913789	-0.406094	-0.008823	0.406075	-0.913831	0.003913	-0.009652	-0.000007	0.999953	
3929														-0.156462	-0.172099	9.748091	-0.909872	-0.414797	-0.008740	0.414778	-0.909914	0.003964	-0.009597	-0.000019	0.999954	
3930														-0.108117	-0.021597	9.820839	-0.906006	-0.423178	-0.008640	0.423159	-0.906047	0.003990	-0.009517	-0.000041	0.999955	
3931														-0.123667	0.143022	9.817365	-0.902069	-0.431506	-0.008668	0.431487	-0.902110	0.004002	-0.009546	-0.000130	0.999954	
3932														-0.037711	0.109941	9.807050	-0.897912	-0.440091	-0.008600	0.440073	-0.897953	0.004043	-0.009502	-0.000154	0.999955	
3933														-0.066126	0.057341	9.810340	-0.893593	-0.448693	-0.008580	0.448674	-0.893634	0.004052	-0.009486	-0.000228	0.999955	
3934														-0.094541	0.004742	9.813630	-0.889274	-0.457294	-0.008561	0.457276	-0.889316	0.004062	-0.009471	-0.000303	0.999955	
3935														-0.130967	0.014297	9.775208	-0.884980	-0.465551	-0.008526	0.465532	-0.885021	0.004118	-0.009463	-0.000325	0.999955	
3936														-0.121235	0.078659	9.818646	-0.880720	-0.473561	-0.008490	0.473544	-0.880761	0.004075	-0.009407	-0.000432	0.999956	
3937														-0.296726	-0.084923	9.842595	-0.876617	-0.481115	-0.008412	0.481098	-0.876657	0.004066	-0.009331	-0.000483	0.999956	
3938														-0.315973	-0.143948	9.798525	-0.872251	-0.488987	-0.008352	0.488971	-0.872291	0.004030	-0.009255	-0.000569	0.999957	
3939														0.014607	-0.109947	9.827384	-0.867604	-0.497186	-0.008324	0.497169	-0.867644	0.004074	-0.009248	-0.000604	0.999957	
3940														-0.114881	-0.018414	9.776314	-0.862792	-0.505491	-0.008342	0.505475	-0.862832	0.004039	-0.009239	-0.000732	0.999957	
3941														0.252152	0.315896	9.803030	-0.857146	-0.515007	-0.008330	0.514991	-0.857186	0.004039	-0.009221	-0.000828	0.999957	
3942														0.087579	0.144110	9.808885	-0.851828	-0.523657	-0.008284	0.523642	-0.851868	0.004029	-0.009167	-0.000905	0.999958	
3943														-0.076994	-0.027676	9.814741	-0.846511	-0.532307	-0.008237	0.532293	-0.846551	0.004019	-0.009113	-0.000982	0.999958	
3944														-0.161011	-0.148257	9.819674	-0.840341	-0.541996	-0.008271	0.541982	-0.840381	0.004002	-0.009120	-0.001119	0.999958	
3945														-0.050869	-0.060831	9.779592	-0.834456	-0.551014	-0.008190	0.551001	-0.834495	0.003981	-0.009028	-0.001191	0.999959	
3946														0.125663	-0.047728	9.846091	-0.828572	-0.559823	-0.008181	0.559811	-0.828611	0.003931	-0.008979	-0.001322	0.999959	
3947														0.125519	-0.078981	9.817071	-0.822467	-0.568754	-0.008134	0.568742	-0.822506	0.003926	-0.008923	-0.001397	0.999959	
3948														0.029594	-0.308374	9.785658	-0.817141	-0.576380	-0.008147	0.576369	-0.817181	0.003891	-0.008900	-0.001516	0.999959	
3949														-0.093245	-0.138159	9.836909	-0.811109	-0.584838	-0.008178	0.584828	-0.811149	0.003796	-0.008854	-0.001704	0.999959	
3950														-0.000040	-0.038385	9.766885	-0.805864	-0.592043	-0.008258	0.592033	-0.805905	0.003773	-0.008889	-0.001849	0.999959	
3951														-0.098564	-0.218749	9.807922	-0.800735	-0.598962	-0.008221	0.598953	-0.800775	0.003751	-0.008830	-0.001920	0.999959	
3952														-0.299080	-0.130275	9.827181	-0.795782	-0.605527	-0.008228	0.605519	-0.795822	0.003675	-0.008774	-0.002057	0.999959	
3953														-0.297934	0.312002	9.779647	-0.790464	-0.612453	-0.008288	0.612446	-0.790504	0.003607	-0.008761	-0.002224	0.999959	
3954														-0.325285	0.195090	9.797654	-0.784570	-0.619912	-0.008337	0.619906	-0.784611	0.003566	-0.008751	-0.002371	0.999959	
3955														-0.352635	0.078179	9.815661	-0.778676	-0.627370	-0.008386	0.627365	-0.778717	0.003524	-0.008741	-0.002517	0.999959	
3956														-0.506762	-0.009007	9.816430	-0.772695	-0.634721	-0.008477	0.634718	-0.772737	0.003399	-0.008708	-0.002754	0.999958	
3957														-0.373789	0.199002	9.791988	-0.766523	-0.642161	-0.008460	0.642159	-0.766564	0.003386	-0.008660	-0.002837	0.999958	
3958														-0.327051	-0.084137	9.825144	-0.760532	-0.649246	-0.008427	0.649244	-0.760573	0.003319	-0.008564	-0.002947	0.999959	
3959														-0.298583	-0.098534	9.811832	-0.755138	-0.655512	-0.008385	0.655511	-0.755179	0.003324	-0.008512	-0.002986	0.999959	
3960														-0.314938	0.115227	9.795303	-0.750356	-0.660982	-0.008305	0.660981	-0.750396	0.003276	-0.008397	-0.003031	0.999960	
3961														-0.316246	0.414620	9.823236	-0.745113	-0.666884	-0.008467	0.666885	-0.745154	0.003196	-0.008441	-0.003265	0.999959	
3962														0.060014	0.063692	9.813079	-0.739555	-0.673044	-0.008451	0.673045	-0.739595	0.003146	-0.008368	-0.003362	0.999959	
3963														0.083497	-0.071394	9.814702	-0.733842	-0.679268	-0.008394	0.679269	-0.733882	0.003154	-0.008303	-0.003387	0.999960	
3964														0.084588	-0.306479	9.830203	-0.728872	-0.684600	-0.008299	0.684601	-0.728911	0.003120	-0.008185	-0.003408	0.999961	
3965														-0.083183	0.060554	9.791740	-0.723647	-0.690122	-0.008122	0.690123	-0.723685	0.003092	-0.008012	-0.003368	0.999962	
3966														0.160029	-0.328593	9.818895	-0.719669	-0.694271	-0.007965	0.694272	-0.719706	0.003111	-0.007892	-0.003291	0.999963	
3967														-0.169300	0.079629	9.787633	-0.716970	-0.697061	-0.007813	0.697061	-0.717005	0.003080	-0.007749	-0.003238	0.999965	
3968														-0.066102	-0.271024	9.822772	-0.713834	-0.700271	-0.007813	0.700272	-0.713870	0.003100	-0.007749	-0.003258	0.999965	
3969														-0.685056	0.297014	9.821783	-0.709656	-0.704505	-0.007789	0.704507	-0.709691	0.003051	-0.007677	-0.003322	0.999965	
3970														-0.268687	0.548658	9.811224	-0.704978	-0.709186	-0.007816	0.709187	-0.705013	0.003100	-0.007709	-0.003357	0.999965	
3971														-0.077347	0.572207	9.805564	-0.699724	-0.714371	-0.007809	0.714373	-0.699759	0.003019	-0.007621	-0.003466	0.999965	
3972														0.390880	-0.315616	9.814461	-0.694973	-0.718994	-0.007739	0.718997	-0.695007	0.003006	-0.007540	-0.003475	0.999966	
3973														0.908044	-0.854415	9.809961	-0.691119	-0.722700	-0.007686	0.722702	-0.691153	0.003003	-0.007482	-0.003479	0.999966	
3974														1.345594	-0.327574	9.814659	-0.686741	-0.726861	-0.007740	0.726864	-0.686775	0.002955	-0.007464	-0.003597	0.999966	
3975														-0.037192	-0.321574	9.779690	-0.681500	-0.731778	-0.007659	0.731781	-0.681534	0.002965	-0.007389	-0.003584	0.999966	
3976														-0.559191	-0.373011	9.814074	-0.676586	-0.736324	-0.007616	0.736327	-0.676619	0.002895	-0.007284	-0.003649	0.999967	
3977														-0.092666	-0.058482	9.835409	-0.672008	-0.740504	-0.007633	0.740508	-0.672041	0.002874	-0.007258	-0.003721	0.999967	
3978														-0.492725	-0.076327	9.772851	-0.667550	-0.744526	-0.007631	0.744530	-0.667583	0.002892	-0.007248	-0.003750	0.999967	
3979														-0.542469	0.224822	9.799816	-0.663256	-0.748353	-0.007699	0.748358	-0.663289	0.002812	-0.007211	-0.003897	0.999966	
3980														-0.228284	0.207499	9.814469	-0.659190	-0.751937	-0.007732	0.751942	-0.659223	0.002781	-0.007188	-0.003981	0.999966	
3981														0.423544	0.252537	9.800820	-0.655199	-0.755417	-0.007719	0.755422	-0.655232	0.002754	-0.007138	-0.004026	0.999966	
3982														0.367008	-0.109127	9.812712	-0.650378	-0.759571	-0.007713	0.759577	-0.650411	0.002843	-0.007176	-0.004010	0.999966	
3983														0.158133	-0.323194	9.802822	-0.645224	-0.763955	-0.007723	0.763960	-0.645257	0.002834	-0.007148	-0.004072	0.999966	
3984														0.026626	-0.136570	9.796835	-0.640172	-0.768192	-0.007842	0.768199	-0.640205	0.002767	-0.007146	-0.004253	0.999965	
3985														-0.137265	-0.186077	9.818419	-0.635367	-0.772171	-0.007803	0.772178	-0.635400	0.002738	-0.007072	-0.004286	0.999966	
3986														-0.177776	-0.202972	9.809133	-0.630708	-0.775957	-0.007868	0.775965	-0.630742	0.002712	-0.007067	-0.004395	0.999965	
3987														-0.218286	-0.219866	9.799847	-0.626049	-0.779743	-0.007934	0.779751	-0.626083	0.002686	-0.007062	-0.004505	0.999965	
3988														-0.068209	0.292739	9.822637	-0.621122	-0.783674	-0.007859	0.783682	-0.621156	0.002744	-0.007032	-0.004454	0.999965	
3989														0.165162	0.465418	9.804690	-0.616278	-0.787489	-0.007881	0.787498	-0.616311	0.002666	-0.006957	-0.004563	0.999965	
3990														0.090673	0.002612	9.800031	-0.611523	-0.791188	-0.007860	0.791196	-0.611556	0.002716	-0.006955	-0.004558	0.999965	
3991														0.016055	-0.339926	9.824858	-0.606781	-0.794830	-0.007816	0.794839	-0.606814	0.002728	-0.006912	-0.004557	0.999966	
3992														-0.090565	-0.361453	9.805090	-0.602067	-0.798407	-0.007822	0.798416	-0.602101	0.002736	-0.006894	-0.004598	0.999966	
3993														-0.148878	-0.139782	9.803074	-0.597466	-0.801857	-0.007724	0.801865	-0.597499	0.002793	-0.006855	-0.004525	0.999966	
3994														-0.247205	-0.147182	9.809451	-0.593480	-0.804796	-0.007750	0.804804	-0.593513	0.002779	-0.006836	-0.004588	0.999966	
3995														-0.345532	-0.154583	9.815828	-0.589494	-0.807735	-0.007776	0.807744	-0.589527	0.002765	-0.006817	-0.004651	0.999966	
3996														-0.023570	-0.117969	9.794280	-0.586163	-0.810157	-0.007648	0.810164	-0.586196	0.002846	-0.006789	-0.004528	0.999967	
3997														0.047287	-0.055543	9.797825	-0.583005	-0.812432	-0.007709	0.812440	-0.583038	0.002813	-0.006780	-0.004624	0.999966	
3998														-0.042950	0.020453	9.779283	-0.579785	-0.814733	-0.007703	0.814741	-0.579818	0.002858	-0.006794	-0.004619	0.999966	
3999														-0.185577	-0.104008	9.816105	-0.576860	-0.816806	-0.007736	0.816815	-0.576893	0.002827	-0.006773	-0.004688	0.999966	
4000														-0.043523	-0.143042	9.822548	-0.574449	-0.818504	-0.007704	0.818513	-0.574482	0.002846	-0.006755	-0.004671	0.999966	
4001														0.044659	-0.067378	9.797665	-0.573556	-0.819131	-0.007633	0.819138	-0.573589	0.002865	-0.006725	-0.004609	0.999967	
4002														-0.340902	-0.151024	9.793991	-0.572990	-0.819527	-0.007591	0.819535	-0.573022	0.002915	-0.006739	-0.004551	0.999967	
4003														-0.519601	-0.151056	9.800324	-0.572241	-0.820050	-0.007584	0.820058	-0.572273	0.002884	-0.006705	-0.004569	0.999967	
4004														-0.127443	-0.289435	9.832680	-0.572086	-0.820159	-0.007504	0.820167	-0.572118	0.002867	-0.006645	-0.004514	0.999968	
4005														0.142539	-0.376709	9.786263	-0.572290	-0.820017	-0.007494	0.820024	-0.572321	0.002907	-0.006673	-0.004482	0.999968	
4006														-0.014713	-0.053921	9.824302	-0.572395	-0.819944	-0.007475	0.819951	-0.572426	0.002916	-0.006670	-0.004460	0.999968	
4007														-0.051080	-0.092095	9.822466	-0.572498	-0.819871	-0.007515	0.819878	-0.572530	0.002939	-0.006713	-0.004479	0.999967	
4008														-0.039578	-0.108723	9.822961	-0.572602	-0.819799	-0.007559	0.819806	-0.572634	0.002949	-0.006746	-0.004509	0.999967	
4009														-0.056395	-0.031348	9.807844	-0.572690	-0.819737	-0.007570	0.819744	-0.572722	0.002965	-0.006766	-0.004507	0.999967	
4010														-0.059036	-0.045253	9.807675	-0.572778	-0.819675	-0.007551	0.819682	-0.572811	0.002973	-0.006762	-0.004486	0.999967	
4011														-0.071422	-0.027710	9.807177	-0.572834	-0.819637	-0.007538	0.819643	-0.572866	0.003016	-0.006790	-0.004451	0.999967	
4012														-0.071792	-0.027044	9.807176	-0.572939	-0.819564	-0.007534	0.819570	-0.572971	0.003028	-0.006798	-0.004439	0.999967	
4013														-0.067223	0.002394	9.807508	-0.573142	-0.819421	-0.007521	0.819428	-0.573175	0.003020	-0.006785	-0.004432	0.999967	
4014														-0.039953	0.072938	9.779736	-0.573803	-0.818958	-0.007547	0.818964	-0.573836	0.003074	-0.006848	-0.004417	0.999967	
4015														0.024903	0.032502	9.826647	-0.574924	-0.818172	-0.007543	0.818178	-0.574956	0.003093	-0.006868	-0.004393	0.999967	
4016														-0.033275	0.042652	9.823963	-0.576172	-0.817294	-0.007567	0.817299	-0.576205	0.003132	-0.006920	-0.004380	0.999966	
4017														-0.136175	-0.132590	9.789208	-0.577173	-0.816587	-0.007627	0.816593	-0.577206	0.003140	-0.006966	-0.004416	0.999966	
4018														-0.136560	0.059895	9.848516	-0.578123	-0.815913	-0.007683	0.815920	-0.578157	0.003100	-0.006971	-0.004477	0.999966	
4019														-0.118962	0.236251	9.805911	-0.580654	-0.814115	-0.007626	0.814121	-0.580687	0.003055	-0.006916	-0.004434	0.999966	
4020														0.020477	-0.247615	9.796315	-0.583692	-0.811940	-0.007594	0.811945	-0.583725	0.003131	-0.006976	-0.004338	0.999966	
4021														-0.015316	-0.270743	9.809295	-0.584570	-0.811308	-0.007633	0.811313	-0.584603	0.003152	-0.007019	-0.004351	0.999966	
4022														-0.060504	-0.098859	9.822336	-0.584334	-0.811478	-0.007632	0.811483	-0.584367	0.003189	-0.007047	-0.004330	0.999966	
4023														-0.167506	-0.109207	9.831925	-0.584179	-0.811589	-0.007622	0.811594	-0.584212	0.003205	-0.007054	-0.004314	0.999966	
4024														-0.027650	0.000967	9.794871	-0.584120	-0.811631	-0.007617	0.811636	-0.584154	0.003268	-0.007103	-0.004273	0.999966	
4025														-0.037237	-0.041985	9.823657	-0.583640	-0.811976	-0.007670	0.811981	-0.583674	0.003262	-0.007126	-0.004324	0.999965	
4026														-0.043887	0.003804	9.808821	-0.582576	-0.812740	-0.007740	0.812745	-0.582611	0.003274	-0.007170	-0.004383	0.999965	
4027														0.019269	-0.052285	9.826367	-0.580649	-0.814117	-0.007826	0.814122	-0.580684	0.003279	-0.007214	-0.004467	0.999964	
4028														-0.262141	-0.048041	9.812988	-0.579666	-0.814817	-0.007735	0.814823	-0.579701	0.003248	-0.007130	-0.004420	0.999965	
4029														-0.038119	-0.041248	9.823657	-0.579298	-0.815079	-0.007727	0.815084	-0.579333	0.003239	-0.007117	-0.004422	0.999965	
4030														-0.083358	-0.047658	9.806831	-0.578833	-0.815410	-0.007706	0.815415	-0.578868	0.003277	-0.007133	-0.004387	0.999965	
4031														-0.068531	-0.049282	9.792881	-0.578661	-0.815532	-0.007677	0.815537	-0.578695	0.003305	-0.007138	-0.004349	0.999965	
4032														-0.066924	-0.034087	9.807670	-0.578619	-0.815562	-0.007640	0.815567	-0.578653	0.003312	-0.007122	-0.004315	0.999965	
4033														-0.067834	-0.033500	9.822302	-0.578576	-0.815592	-0.007648	0.815597	-0.578611	0.003330	-0.007141	-0.004311	0.999965	
4034														-0.071966	-0.047761	9.851412	-0.578582	-0.815588	-0.007682	0.815593	-0.578616	0.003308	-0.007143	-0.004352	0.999965	
4035														-0.068322	-0.033001	9.822301	-0.578588	-0.815584	-0.007679	0.815589	-0.578623	0.003307	-0.007141	-0.004350	0.999965	
4036														-0.055159	-0.049304	9.793568	-0.578594	-0.815579	-0.007673	0.815584	-0.578629	0.003321	-0.007148	-0.004337	0.999965	
4037														-0.081798	-0.029466	9.792355	-0.578584	-0.815586	-0.007670	0.815591	-0.578619	0.003320	-0.007146	-0.004334	0.999965	
4038														-0.068893	-0.031581	9.822301	-0.578591	-0.815582	-0.007671	0.815587	-0.578625	0.003305	-0.007134	-0.004345	0.999965	
4039														-0.056365	-0.047868	9.808204	-0.578581	-0.815589	-0.007646	0.815593	-0.578616	0.003330	-0.007140	-0.004310	0.999965	
4040														-0.069347	-0.030662	9.822301	-0.578586	-0.815585	-0.007695	0.815590	-0.578621	0.003311	-0.007153	-0.004361	0.999965	
4041														-0.070287	-0.030394	9.836932	-0.578577	-0.815592	-0.007673	0.815597	-0.578611	0.003321	-0.007149	-0.004337	0.999965	
4042														-0.100340	-0.039343	9.806151	-0.578583	-0.815587	-0.007671	0.815592	-0.578618	0.003321	-0.007147	-0.004335	0.999965	
4043														-0.071664	-0.043864	9.807521	-0.578572	-0.815595	-0.007687	0.815600	-0.578607	0.003309	-0.007147	-0.004355	0.999965	
4044														-0.054337	-0.031413	9.793723	-0.578579	-0.815590	-0.007680	0.815595	-0.578613	0.003323	-0.007154	-0.004341	0.999965	
4045														-0.072115	-0.042947	9.807522	-0.578569	-0.815597	-0.007677	0.815602	-0.578604	0.003323	-0.007152	-0.004339	0.999965	
4046														-0.071635	-0.042407	9.792891	-0.578592	-0.815581	-0.007671	0.815586	-0.578626	0.003336	-0.007160	-0.004326	0.999965	
4047														-0.058668	-0.044346	9.822843	-0.578582	-0.815588	-0.007643	0.815593	-0.578617	0.003313	-0.007125	-0.004316	0.999965	
4048														-0.068425	-0.012572	9.822446	-0.578604	-0.815572	-0.007666	0.815577	-0.578639	0.003334	-0.007155	-0.004323	0.999965	
4049														-0.072790	-0.040924	9.807525	-0.578579	-0.815591	-0.007633	0.815595	-0.578613	0.003327	-0.007130	-0.004301	0.999965	
4050														-0.057032	-0.042952	9.778951	-0.578584	-0.815587	-0.007668	0.815592	-0.578619	0.003304	-0.007131	-0.004342	0.999965	
4051														-0.071486	-0.025751	9.822300	-0.578591	-0.815582	-0.007653	0.815587	-0.578625	0.003347	-0.007158	-0.004305	0.999965	
4052														-0.074052	-0.039429	9.822159	-0.578615	-0.815566	-0.007606	0.815570	-0.578649	0.003335	-0.007121	-0.004274	0.999966	
4053														-0.088428	-0.036363	9.821473	-0.578621	-0.815561	-0.007589	0.815565	-0.578656	0.003330	-0.007107	-0.004263	0.999966	
4054														-0.044501	-0.043153	9.808910	-0.578612	-0.815568	-0.007589	0.815572	-0.578646	0.003314	-0.007094	-0.004272	0.999966	
4055														-0.087158	-0.035424	9.792212	-0.578586	-0.815587	-0.007572	0.815591	-0.578619	0.003310	-0.007081	-0.004260	0.999966	
4056														-0.071893	-0.022986	9.822304	-0.578591	-0.815582	-0.007583	0.815587	-0.578625	0.003314	-0.007090	-0.004268	0.999966	
4057														-0.059384	-0.039211	9.808224	-0.578599	-0.815577	-0.007545	0.815581	-0.578633	0.003333	-0.007084	-0.004225	0.999966	
4058														-0.072679	-0.036189	9.778271	-0.578637	-0.815550	-0.007572	0.815554	-0.578671	0.003339	-0.007105	-0.004243	0.999966	
4059														-0.059887	-0.038245	9.808225	-0.578644	-0.815545	-0.007555	0.815550	-0.578678	0.003335	-0.007092	-0.004232	0.999966	
4060														-0.072731	-0.020903	9.822302	-0.578649	-0.815542	-0.007554	0.815546	-0.578683	0.003336	-0.007092	-0.004230	0.999966	
4061														-0.060177	-0.037292	9.808227	-0.578672	-0.815525	-0.007550	0.815530	-0.578706	0.003334	-0.007088	-0.004228	0.999966	
4062														-0.047669	-0.053623	9.794154	-0.578678	-0.815521	-0.007541	0.815525	-0.578712	0.003350	-0.007096	-0.004212	0.999966	
4063														-0.058872	-0.021897	9.822994	-0.578668	-0.815528	-0.007544	0.815533	-0.578702	0.003334	-0.007085	-0.004223	0.999966	
4064														-0.075778	-0.033491	9.822168	-0.578675	-0.815524	-0.007525	0.815528	-0.578708	0.003330	-0.007070	-0.004210	0.999966	
4065														-0.075189	-0.032970	9.807537	-0.578648	-0.815542	-0.007522	0.815547	-0.578682	0.003329	-0.007068	-0.004208	0.999966	
4066														-0.062333	-0.034848	9.837494	-0.578671	-0.815526	-0.007501	0.815530	-0.578705	0.003339	-0.007064	-0.004185	0.999966	
4067														-0.061801	-0.034378	9.822864	-0.578661	-0.815534	-0.007516	0.815538	-0.578694	0.003328	-0.007064	-0.004204	0.999966	
4068														-0.058172	-0.019549	9.793732	-0.578683	-0.815518	-0.007514	0.815522	-0.578717	0.003327	-0.007062	-0.004203	0.999966	
4069														-0.063744	-0.048020	9.808103	-0.578674	-0.815525	-0.007500	0.815529	-0.578707	0.003307	-0.007037	-0.004203	0.999966	
4070														-0.073460	-0.016378	9.807669	-0.578680	-0.815520	-0.007516	0.815524	-0.578713	0.003294	-0.007036	-0.004223	0.999966	
4071														-0.061557	-0.032940	9.808234	-0.578702	-0.815504	-0.007518	0.815509	-0.578736	0.003279	-0.007024	-0.004234	0.999966	
4072														-0.062333	-0.032510	9.822867	-0.578709	-0.815500	-0.007500	0.815504	-0.578742	0.003274	-0.007011	-0.004222	0.999967	
4073														-0.059464	-0.017641	9.808363	-0.578714	-0.815496	-0.007526	0.815500	-0.578748	0.003281	-0.007032	-0.004239	0.999966	
4074														-0.074196	-0.014993	9.807665	-0.578703	-0.815504	-0.007543	0.815508	-0.578736	0.003273	-0.007035	-0.004257	0.999966	
4075														-0.079144	-0.043335	9.807411	-0.578693	-0.815511	-0.007503	0.815515	-0.578726	0.003296	-0.007030	-0.004211	0.999966	
4076														-0.061719	-0.030658	9.793605	-0.578699	-0.815506	-0.007504	0.815511	-0.578733	0.003280	-0.007017	-0.004221	0.999966	
4077														-0.062601	-0.030215	9.808236	-0.578706	-0.815502	-0.007497	0.815506	-0.578739	0.003292	-0.007023	-0.004208	0.999966	
4078														-0.062057	-0.029644	9.793606	-0.578680	-0.815520	-0.007480	0.815524	-0.578713	0.003288	-0.007010	-0.004197	0.999967	
4079														-0.061206	-0.014702	9.822993	-0.578670	-0.815527	-0.007478	0.815531	-0.578703	0.003287	-0.007008	-0.004196	0.999967	
4080														-0.079925	-0.040701	9.807416	-0.578692	-0.815512	-0.007472	0.815516	-0.578725	0.003302	-0.007017	-0.004183	0.999967	
4081														-0.080358	-0.040177	9.807415	-0.578697	-0.815508	-0.007493	0.815512	-0.578731	0.003339	-0.007059	-0.004178	0.999966	
4082														-0.063108	-0.027640	9.793605	-0.578688	-0.815515	-0.007477	0.815519	-0.578721	0.003320	-0.007034	-0.004176	0.999967	
4083														-0.066978	-0.041659	9.822747	-0.578694	-0.815510	-0.007472	0.815514	-0.578727	0.003319	-0.007031	-0.004173	0.999967	
4084														-0.079200	-0.024264	9.822168	-0.578700	-0.815506	-0.007451	0.815510	-0.578734	0.003330	-0.007028	-0.004150	0.999967	
4085														-0.066645	-0.040478	9.808118	-0.578690	-0.815513	-0.007445	0.815517	-0.578723	0.003344	-0.007036	-0.004136	0.999967	
4086														-0.052592	-0.042384	9.808819	-0.578679	-0.815521	-0.007466	0.815525	-0.578712	0.003367	-0.007067	-0.004141	0.999966	
4087														-0.065038	-0.025079	9.808235	-0.578685	-0.815517	-0.007461	0.815520	-0.578718	0.003381	-0.007075	-0.004128	0.999966	
4088														-0.068308	-0.039188	9.822748	-0.578692	-0.815512	-0.007481	0.815516	-0.578725	0.003352	-0.007063	-0.004161	0.999966	
4089														-0.061540	-0.009769	9.779090	-0.578666	-0.815531	-0.007443	0.815534	-0.578699	0.003375	-0.007059	-0.004117	0.999967	
4090														-0.054159	-0.040600	9.823453	-0.578672	-0.815526	-0.007476	0.815530	-0.578705	0.003349	-0.007057	-0.004159	0.999966	
4091														-0.081520	-0.021215	9.836793	-0.578695	-0.815510	-0.007476	0.815514	-0.578728	0.003332	-0.007044	-0.004168	0.999967	
4092														-0.067438	-0.037644	9.793488	-0.578669	-0.815528	-0.007467	0.815532	-0.578702	0.003331	-0.007038	-0.004162	0.999967	
4093														-0.080775	-0.034752	9.763521	-0.578658	-0.815536	-0.007470	0.815540	-0.578691	0.003366	-0.007068	-0.004145	0.999966	
4094														-0.067973	-0.022134	9.837494	-0.578663	-0.815533	-0.007479	0.815536	-0.578696	0.003385	-0.007089	-0.004140	0.999966	
4095														-0.057446	-0.038449	9.867348	-0.578653	-0.815540	-0.007448	0.815543	-0.578686	0.003364	-0.007053	-0.004128	0.999967	
4096														-0.064692	-0.021184	9.764339	-0.578642	-0.815547	-0.007467	0.815551	-0.578676	0.003385	-0.007082	-0.004131	0.999966	
4097														-0.052744	-0.023234	9.808937	-0.578664	-0.815532	-0.007487	0.815535	-0.578697	0.003374	-0.007085	-0.004153	0.999966	
4098														-0.069833	-0.034969	9.808117	-0.578654	-0.815539	-0.007497	0.815542	-0.578687	0.003391	-0.007104	-0.004152	0.999966	
4099														-0.098226	-0.029843	9.792071	-0.578660	-0.815534	-0.007495	0.815538	-0.578694	0.003374	-0.007089	-0.004160	0.999966	
4100														-0.058987	-0.051021	9.823344	-0.578667	-0.815530	-0.007518	0.815533	-0.578700	0.003392	-0.007117	-0.004168	0.999966	
4101														-0.057030	-0.036302	9.823453	-0.578656	-0.815537	-0.007548	0.815541	-0.578690	0.003383	-0.007127	-0.004198	0.999966	
4102														-0.086150	-0.031283	9.822035	-0.578662	-0.815532	-0.007544	0.815536	-0.578696	0.003382	-0.007123	-0.004195	0.999966	
4103														-0.060509	-0.018780	9.632651	-0.578651	-0.815540	-0.007576	0.815544	-0.578685	0.003436	-0.007186	-0.004191	0.999965	
4104														-0.050383	-0.052247	9.897201	-0.578636	-0.815549	-0.007719	0.815553	-0.578672	0.003486	-0.007310	-0.004279	0.999964	
4105														-0.151306	-0.037997	10.170907	-0.578643	-0.815545	-0.007695	0.815549	-0.578678	0.003449	-0.007266	-0.004280	0.999964	
4106														-0.082860	-0.013360	9.470282	-0.578636	-0.815550	-0.007617	0.815554	-0.578671	0.003442	-0.007215	-0.004220	0.999965	
4107														0.042956	-0.050823	9.799174	-0.578635	-0.815550	-0.007731	0.815554	-0.578671	0.003481	-0.007313	-0.004291	0.999964	
4108														-0.039445	-0.053382	9.941806	-0.578657	-0.815535	-0.007726	0.815539	-0.578692	0.003483	-0.007311	-0.004285	0.999964	
4109														-0.168617	-0.000724	9.715421	-0.578663	-0.815530	-0.007752	0.815534	-0.578698	0.003487	-0.007330	-0.004304	0.999964	
4110														-0.066133	-0.048090	9.881854	-0.578651	-0.815538	-0.007781	0.815542	-0.578688	0.003494	-0.007352	-0.004324	0.999964	
4111														0.023065	-0.061890	9.827624	-0.578625	-0.815556	-0.007796	0.815560	-0.578661	0.003495	-0.007361	-0.004336	0.999964	
4112														-0.086783	-0.028241	9.748854	-0.578647	-0.815541	-0.007790	0.815545	-0.578683	0.003512	-0.007372	-0.004321	0.999963	
4113														-0.139368	-0.049667	9.834274	-0.578636	-0.815548	-0.007808	0.815552	-0.578673	0.003498	-0.007371	-0.004344	0.999963	
4114														-0.033888	-0.036902	9.839502	-0.578642	-0.815544	-0.007836	0.815548	-0.578679	0.003503	-0.007391	-0.004363	0.999963	
4115														-0.046713	-0.048718	9.750896	-0.578664	-0.815529	-0.007842	0.815533	-0.578700	0.003522	-0.007410	-0.004358	0.999963	
4116														-0.076448	-0.029178	9.808087	-0.578668	-0.815525	-0.007858	0.815529	-0.578705	0.003514	-0.007413	-0.004375	0.999963	
4117														-0.081088	-0.043206	9.851874	-0.578658	-0.815532	-0.007837	0.815537	-0.578695	0.003510	-0.007397	-0.004361	0.999963	
4118														-0.061465	-0.030581	9.794176	-0.578665	-0.815528	-0.007818	0.815532	-0.578701	0.003505	-0.007383	-0.004348	0.999963	
4119														-0.075977	-0.027801	9.793458	-0.578687	-0.815512	-0.007821	0.815516	-0.578724	0.003489	-0.007372	-0.004359	0.999963	
4120														-0.107845	-0.022737	9.850542	-0.578676	-0.815520	-0.007822	0.815524	-0.578713	0.003476	-0.007362	-0.004368	0.999963	
4121														-0.078495	-0.041314	9.793358	-0.578651	-0.815538	-0.007783	0.815542	-0.578687	0.003497	-0.007356	-0.004323	0.999964	
4122														-0.078037	-0.040761	9.778728	-0.578656	-0.815534	-0.007810	0.815538	-0.578693	0.003503	-0.007376	-0.004342	0.999963	
4123														-0.063781	-0.028174	9.823439	-0.578680	-0.815517	-0.007801	0.815521	-0.578716	0.003513	-0.007380	-0.004329	0.999963	
4124														-0.080057	-0.039915	9.807987	-0.578654	-0.815536	-0.007816	0.815540	-0.578690	0.003499	-0.007377	-0.004349	0.999963	
4125														-0.080918	-0.039605	9.822618	-0.578660	-0.815532	-0.007815	0.815536	-0.578696	0.003484	-0.007364	-0.004358	0.999963	
4126														-0.067319	-0.041415	9.837971	-0.578666	-0.815527	-0.007795	0.815531	-0.578702	0.003494	-0.007361	-0.004335	0.999964	
4127														-0.051737	-0.043150	9.809433	-0.578654	-0.815536	-0.007800	0.815540	-0.578691	0.003531	-0.007393	-0.004318	0.999963	
4128														-0.082596	-0.052404	9.793260	-0.578677	-0.815520	-0.007795	0.815523	-0.578713	0.003544	-0.007402	-0.004306	0.999963	
4129														-0.065195	-0.025361	9.823437	-0.578666	-0.815527	-0.007807	0.815531	-0.578703	0.003531	-0.007398	-0.004324	0.999963	
4130														-0.082251	-0.037144	9.822616	-0.578688	-0.815511	-0.007816	0.815515	-0.578725	0.003549	-0.007418	-0.004320	0.999963	
4131														-0.066681	-0.039093	9.794079	-0.578662	-0.815530	-0.007824	0.815534	-0.578698	0.003551	-0.007424	-0.004326	0.999963	
4132														-0.077393	-0.007369	9.808175	-0.578668	-0.815526	-0.007805	0.815530	-0.578704	0.003549	-0.007411	-0.004312	0.999963	
4133														-0.086733	-0.064780	9.807798	-0.578673	-0.815522	-0.007799	0.815526	-0.578710	0.003535	-0.007396	-0.004315	0.999963	
4134														-0.087423	-0.049995	9.866413	-0.578679	-0.815518	-0.007824	0.815522	-0.578716	0.003506	-0.007388	-0.004352	0.999963	
4135														-0.081642	-0.035400	9.793355	-0.578668	-0.815525	-0.007835	0.815529	-0.578705	0.003510	-0.007397	-0.004359	0.999963	
4136														-0.067996	-0.037249	9.808712	-0.578692	-0.815509	-0.007803	0.815513	-0.578728	0.003488	-0.007361	-0.004345	0.999963	
4137														-0.067277	-0.036782	9.794084	-0.578697	-0.815505	-0.007795	0.815509	-0.578734	0.003488	-0.007356	-0.004338	0.999964	
4138														-0.069745	-0.050584	9.793994	-0.578704	-0.815501	-0.007760	0.815504	-0.578740	0.003510	-0.007354	-0.004297	0.999964	
4139														-0.069014	-0.035567	9.823346	-0.578709	-0.815497	-0.007780	0.815501	-0.578745	0.003485	-0.007345	-0.004328	0.999964	
4140														-0.054018	-0.037556	9.809443	-0.578715	-0.815493	-0.007770	0.815497	-0.578751	0.003500	-0.007351	-0.004311	0.999964	
4141														-0.080199	-0.017977	9.793448	-0.578704	-0.815501	-0.007774	0.815504	-0.578740	0.003519	-0.007369	-0.004303	0.999964	
4142														-0.055366	-0.036649	9.824073	-0.578710	-0.815496	-0.007792	0.815500	-0.578747	0.003504	-0.007368	-0.004327	0.999963	
4143														-0.070566	-0.033923	9.837976	-0.578700	-0.815504	-0.007764	0.815508	-0.578736	0.003485	-0.007335	-0.004314	0.999964	
4144														-0.064673	-0.019254	9.764915	-0.578688	-0.815511	-0.007795	0.815516	-0.578725	0.003478	-0.007347	-0.004344	0.999964	
4145														-0.086898	-0.045465	9.822530	-0.578662	-0.815531	-0.007792	0.815535	-0.578698	0.003478	-0.007345	-0.004342	0.999964	
4146														-0.069482	-0.032885	9.808717	-0.578684	-0.815515	-0.007779	0.815519	-0.578720	0.003459	-0.007323	-0.004342	0.999964	
4147														-0.098407	-0.028001	9.807260	-0.578673	-0.815522	-0.007797	0.815527	-0.578709	0.003434	-0.007313	-0.004372	0.999964	
4148														-0.071218	-0.032241	9.837977	-0.578663	-0.815530	-0.007805	0.815534	-0.578699	0.003450	-0.007331	-0.004369	0.999964	
4149														-0.070029	-0.031838	9.808717	-0.578669	-0.815525	-0.007801	0.815530	-0.578705	0.003450	-0.007328	-0.004366	0.999964	
4150														-0.084757	-0.029078	9.807986	-0.578657	-0.815533	-0.007811	0.815538	-0.578693	0.003470	-0.007350	-0.004363	0.999963	
4151														-0.072883	-0.045381	9.808632	-0.578679	-0.815518	-0.007809	0.815522	-0.578715	0.003470	-0.007349	-0.004361	0.999963	
4152														-0.086110	-0.028174	9.822613	-0.578669	-0.815525	-0.007832	0.815529	-0.578705	0.003489	-0.007378	-0.004368	0.999963	
4153														-0.071968	-0.044524	9.779372	-0.578676	-0.815520	-0.007801	0.815525	-0.578712	0.003481	-0.007353	-0.004347	0.999964	
4154														-0.056979	-0.031819	9.809447	-0.578664	-0.815528	-0.007837	0.815532	-0.578701	0.003504	-0.007393	-0.004363	0.999963	
4155														-0.074848	-0.043594	9.823260	-0.578653	-0.815536	-0.007833	0.815540	-0.578690	0.003507	-0.007393	-0.004359	0.999963	
4156														-0.043038	-0.033233	9.810180	-0.578644	-0.815543	-0.007816	0.815547	-0.578680	0.003501	-0.007378	-0.004348	0.999963	
4157														-0.072218	-0.028192	9.808712	-0.578649	-0.815539	-0.007839	0.815543	-0.578685	0.003523	-0.007409	-0.004355	0.999963	
4158														-0.073350	-0.027791	9.823340	-0.578638	-0.815547	-0.007850	0.815551	-0.578675	0.003525	-0.007417	-0.004363	0.999963	
4159														-0.075119	-0.041786	9.808631	-0.578661	-0.815531	-0.007831	0.815535	-0.578697	0.003536	-0.007415	-0.004340	0.999963	
4160														-0.073155	-0.026692	9.808709	-0.578633	-0.815550	-0.007834	0.815554	-0.578670	0.003569	-0.007444	-0.004324	0.999963	
4161														-0.062168	-0.042982	9.823996	-0.578638	-0.815547	-0.007859	0.815550	-0.578675	0.003577	-0.007464	-0.004340	0.999963	
4162														-0.073869	-0.025701	9.808707	-0.578645	-0.815542	-0.007819	0.815545	-0.578682	0.003597	-0.007458	-0.004295	0.999963	
4163														-0.088446	-0.023024	9.807969	-0.578634	-0.815550	-0.007854	0.815553	-0.578671	0.003560	-0.007448	-0.004346	0.999963	
4164														-0.078579	-0.053960	9.808555	-0.578641	-0.815545	-0.007823	0.815549	-0.578677	0.003552	-0.007423	-0.004325	0.999963	
4165														-0.059682	-0.026689	9.809446	-0.578630	-0.815552	-0.007816	0.815556	-0.578667	0.003566	-0.007431	-0.004311	0.999963	
4166														-0.075883	-0.038309	9.794004	-0.578653	-0.815537	-0.007794	0.815540	-0.578689	0.003578	-0.007428	-0.004286	0.999963	
4167														-0.063137	-0.039993	9.824002	-0.578658	-0.815533	-0.007804	0.815536	-0.578695	0.003581	-0.007436	-0.004292	0.999963	
4168														-0.077021	-0.037308	9.808634	-0.578665	-0.815528	-0.007783	0.815532	-0.578701	0.003576	-0.007420	-0.004279	0.999963	
4169														-0.048984	-0.041412	9.824743	-0.578654	-0.815536	-0.007798	0.815539	-0.578691	0.003562	-0.007418	-0.004298	0.999963	
4170														-0.090349	-0.019662	9.822596	-0.578660	-0.815532	-0.007788	0.815535	-0.578697	0.003591	-0.007436	-0.004273	0.999963	
4171														-0.077592	-0.035892	9.808635	-0.578684	-0.815515	-0.007775	0.815518	-0.578720	0.003570	-0.007411	-0.004275	0.999963	
4172														-0.060245	-0.023234	9.794817	-0.578673	-0.815522	-0.007764	0.815526	-0.578710	0.003584	-0.007416	-0.004258	0.999963	
4173														-0.068828	-0.025281	9.805401	-0.578671	-0.815524	-0.007765	0.815528	-0.578707	0.003600	-0.007430	-0.004249	0.999963	
4174														-0.077410	-0.027328	9.815984	-0.578668	-0.815527	-0.007766	0.815530	-0.578704	0.003617	-0.007444	-0.004241	0.999963	
4175														-0.066342	-0.050533	9.809309	-0.578690	-0.815511	-0.007748	0.815514	-0.578726	0.003616	-0.007433	-0.004226	0.999963	
4176														-0.064987	-0.035453	9.824008	-0.578680	-0.815518	-0.007740	0.815521	-0.578716	0.003629	-0.007438	-0.004212	0.999963	
4177														-0.064660	-0.034762	9.809378	-0.578686	-0.815514	-0.007720	0.815516	-0.578723	0.003685	-0.007473	-0.004163	0.999963	
4178														-0.081639	-0.046302	9.808570	-0.578708	-0.815498	-0.007708	0.815500	-0.578745	0.003667	-0.007451	-0.004163	0.999964	
4179														-0.079455	-0.031491	9.808635	-0.578697	-0.815506	-0.007724	0.815508	-0.578734	0.003656	-0.007452	-0.004183	0.999963	
4180														-0.063030	-0.018919	9.809443	-0.578687	-0.815513	-0.007729	0.815516	-0.578723	0.003673	-0.007468	-0.004177	0.999963	
4181														-0.069316	-0.047296	9.838574	-0.578675	-0.815521	-0.007727	0.815524	-0.578712	0.003675	-0.007469	-0.004175	0.999963	
4182														-0.065741	-0.032473	9.809379	-0.578698	-0.815506	-0.007724	0.815508	-0.578734	0.003675	-0.007467	-0.004172	0.999963	
4183														-0.081166	-0.029655	9.823262	-0.578688	-0.815513	-0.007714	0.815515	-0.578724	0.003687	-0.007471	-0.004157	0.999963	
4184														-0.068400	-0.046087	9.809317	-0.578693	-0.815509	-0.007734	0.815511	-0.578730	0.003661	-0.007461	-0.004189	0.999963	
4185														-0.067767	-0.031110	9.838638	-0.578716	-0.815493	-0.007712	0.815495	-0.578752	0.003671	-0.007457	-0.004165	0.999964	
4186														-0.082610	-0.042923	9.793941	-0.578720	-0.815490	-0.007731	0.815492	-0.578756	0.003710	-0.007500	-0.004157	0.999963	
4187														-0.070092	-0.044642	9.823946	-0.578708	-0.815498	-0.007744	0.815500	-0.578745	0.003715	-0.007511	-0.004166	0.999963	
4188														-0.083432	-0.027391	9.837885	-0.578730	-0.815482	-0.007751	0.815484	-0.578767	0.003746	-0.007541	-0.004153	0.999963	
4189														-0.084568	-0.041511	9.808566	-0.578720	-0.815490	-0.007760	0.815492	-0.578757	0.003748	-0.007548	-0.004159	0.999963	
4190														-0.084797	-0.041104	9.808566	-0.578710	-0.815497	-0.007753	0.815499	-0.578747	0.003745	-0.007541	-0.004156	0.999963	
4191														-0.070733	-0.042983	9.809315	-0.578698	-0.815505	-0.007792	0.815507	-0.578735	0.003771	-0.007584	-0.004172	0.999963	
4192														-0.069478	-0.028149	9.824001	-0.578705	-0.815500	-0.007779	0.815502	-0.578742	0.003735	-0.007548	-0.004182	0.999963	
4193														-0.070239	-0.042354	9.794687	-0.578710	-0.815496	-0.007778	0.815498	-0.578747	0.003735	-0.007548	-0.004181	0.999963	
4194														-0.071059	-0.041852	9.809317	-0.578733	-0.815480	-0.007766	0.815482	-0.578770	0.003715	-0.007524	-0.004183	0.999963	
4195														-0.087775	-0.053700	9.808512	-0.578723	-0.815487	-0.007765	0.815490	-0.578760	0.003699	-0.007511	-0.004192	0.999963	
4196														-0.056745	-0.043303	9.810071	-0.578712	-0.815495	-0.007763	0.815497	-0.578749	0.003699	-0.007509	-0.004190	0.999963	
4197														-0.071326	-0.040666	9.809320	-0.578718	-0.815491	-0.007763	0.815493	-0.578755	0.003684	-0.007497	-0.004198	0.999963	
4198														-0.071508	-0.040319	9.809320	-0.578722	-0.815488	-0.007775	0.815490	-0.578759	0.003690	-0.007509	-0.004204	0.999963	
4199														-0.072596	-0.039843	9.823949	-0.578711	-0.815496	-0.007782	0.815498	-0.578748	0.003709	-0.007529	-0.004200	0.999963	
4200														-0.072172	-0.039387	9.809319	-0.578733	-0.815480	-0.007774	0.815482	-0.578770	0.003724	-0.007536	-0.004185	0.999963	
4201														-0.072289	-0.038886	9.809320	-0.578722	-0.815488	-0.007759	0.815490	-0.578759	0.003707	-0.007513	-0.004182	0.999963	
4202														-0.070125	-0.023962	9.809373	-0.578728	-0.815484	-0.007758	0.815486	-0.578765	0.003707	-0.007513	-0.004181	0.999963	
4203														-0.072580	-0.037929	9.809322	-0.578733	-0.815480	-0.007752	0.815482	-0.578770	0.003722	-0.007521	-0.004167	0.999963	
4204														-0.073507	-0.037409	9.823951	-0.578723	-0.815488	-0.007752	0.815490	-0.578759	0.003707	-0.007510	-0.004177	0.999963	
4205														-0.042601	-0.027083	9.825511	-0.578711	-0.815496	-0.007775	0.815498	-0.578748	0.003714	-0.007528	-0.004191	0.999963	
4206														-0.073334	-0.036862	9.809321	-0.578700	-0.815503	-0.007789	0.815506	-0.578737	0.003716	-0.007538	-0.004201	0.999963	
4207														-0.074969	-0.036331	9.838579	-0.578707	-0.815499	-0.007775	0.815501	-0.578744	0.003696	-0.007514	-0.004201	0.999963	
4208														-0.076570	-0.050584	9.823902	-0.578695	-0.815507	-0.007805	0.815509	-0.578732	0.003689	-0.007525	-0.004230	0.999963	
4209														-0.089052	-0.033687	9.823192	-0.578684	-0.815514	-0.007821	0.815517	-0.578721	0.003676	-0.007524	-0.004251	0.999963	
4210														-0.089128	-0.033345	9.823192	-0.578674	-0.815522	-0.007806	0.815525	-0.578711	0.003658	-0.007501	-0.004249	0.999963	
4211														-0.074672	-0.034962	9.823952	-0.578664	-0.815529	-0.007770	0.815532	-0.578701	0.003666	-0.007486	-0.004215	0.999963	
4212														-0.074188	-0.034465	9.809323	-0.578685	-0.815514	-0.007792	0.815516	-0.578722	0.003686	-0.007516	-0.004222	0.999963	
4213														-0.074525	-0.034053	9.809322	-0.578675	-0.815521	-0.007789	0.815524	-0.578712	0.003685	-0.007513	-0.004220	0.999963	
4214														-0.075398	-0.033479	9.823951	-0.578681	-0.815517	-0.007770	0.815519	-0.578718	0.003681	-0.007499	-0.004206	0.999963	
4215														-0.063270	-0.049668	9.824667	-0.578670	-0.815525	-0.007769	0.815527	-0.578707	0.003681	-0.007498	-0.004205	0.999963	
4216														-0.074127	-0.032723	9.794695	-0.578693	-0.815509	-0.007768	0.815511	-0.578729	0.003665	-0.007484	-0.004214	0.999963	
4217														-0.092555	-0.044551	9.823149	-0.578697	-0.815505	-0.007795	0.815508	-0.578734	0.003672	-0.007505	-0.004232	0.999963	
4218														-0.062475	-0.034167	9.839339	-0.578686	-0.815513	-0.007811	0.815516	-0.578723	0.003661	-0.007506	-0.004251	0.999963	
4219														-0.076400	-0.031516	9.823950	-0.578676	-0.815520	-0.007786	0.815523	-0.578713	0.003685	-0.007511	-0.004217	0.999963	
4220														-0.061290	-0.033188	9.810083	-0.578682	-0.815516	-0.007772	0.815519	-0.578719	0.003667	-0.007488	-0.004216	0.999963	
4221														-0.080992	-0.059422	9.823871	-0.578671	-0.815524	-0.007769	0.815527	-0.578708	0.003667	-0.007487	-0.004214	0.999963	
4222														-0.076099	-0.030071	9.809323	-0.578659	-0.815533	-0.007777	0.815535	-0.578696	0.003688	-0.007508	-0.004208	0.999963	
4223														-0.092939	-0.041895	9.808522	-0.578666	-0.815528	-0.007761	0.815530	-0.578702	0.003667	-0.007482	-0.004207	0.999963	
4224														-0.078594	-0.043595	9.809285	-0.578655	-0.815536	-0.007756	0.815538	-0.578691	0.003683	-0.007492	-0.004194	0.999963	
4225														-0.077944	-0.043068	9.794658	-0.578694	-0.815508	-0.007724	0.815511	-0.578730	0.003675	-0.007467	-0.004172	0.999963	
4226														-0.079750	-0.042557	9.823915	-0.578665	-0.815528	-0.007781	0.815531	-0.578702	0.003687	-0.007510	-0.004212	0.999963	
4227														-0.062778	-0.030037	9.810084	-0.578704	-0.815501	-0.007775	0.815503	-0.578741	0.003702	-0.007518	-0.004199	0.999963	
4228														-0.078902	-0.041894	9.794656	-0.578693	-0.815509	-0.007771	0.815511	-0.578730	0.003702	-0.007516	-0.004195	0.999963	
4229														-0.063689	-0.043675	9.780794	-0.578700	-0.815504	-0.007741	0.815506	-0.578736	0.003678	-0.007480	-0.004184	0.999963	
4230														-0.063894	-0.028450	9.824715	-0.578705	-0.815500	-0.007749	0.815503	-0.578742	0.003696	-0.007499	-0.004180	0.999963	
4231														-0.092185	-0.023747	9.808557	-0.578711	-0.815496	-0.007738	0.815499	-0.578747	0.003663	-0.007465	-0.004190	0.999963	
4232														-0.065634	-0.042267	9.810053	-0.578699	-0.815504	-0.007761	0.815507	-0.578736	0.003684	-0.007496	-0.004197	0.999963	
4233														-0.094782	-0.037370	9.808522	-0.578673	-0.815523	-0.007725	0.815525	-0.578710	0.003676	-0.007469	-0.004173	0.999963	
4234														-0.080599	-0.039102	9.809288	-0.578727	-0.815485	-0.007762	0.815487	-0.578764	0.003700	-0.007510	-0.004188	0.999963	
4235														-0.068621	-0.055527	9.810021	-0.578700	-0.815504	-0.007764	0.815506	-0.578736	0.003670	-0.007486	-0.004207	0.999963	
4236														-0.078830	-0.023972	9.809318	-0.578705	-0.815500	-0.007757	0.815503	-0.578742	0.003686	-0.007495	-0.004193	0.999963	
4237														-0.066720	-0.040082	9.810055	-0.578694	-0.815508	-0.007737	0.815510	-0.578731	0.003682	-0.007480	-0.004178	0.999963	
4238														-0.081358	-0.037444	9.809288	-0.578716	-0.815493	-0.007749	0.815495	-0.578752	0.003686	-0.007491	-0.004186	0.999963	
4239														-0.077885	-0.022835	9.780060	-0.578722	-0.815488	-0.007764	0.815491	-0.578758	0.003672	-0.007488	-0.004206	0.999963	
4240														-0.068144	-0.039050	9.824683	-0.578710	-0.815496	-0.007797	0.815499	-0.578747	0.003665	-0.007501	-0.004237	0.999963	
4241														-0.094251	-0.019892	9.808546	-0.578717	-0.815492	-0.007767	0.815494	-0.578754	0.003655	-0.007476	-0.004219	0.999963	
4242														-0.054530	-0.055146	9.796169	-0.578689	-0.815511	-0.007800	0.815514	-0.578725	0.003633	-0.007477	-0.004258	0.999963	
4243														-0.067052	-0.038181	9.795427	-0.578711	-0.815496	-0.007794	0.815499	-0.578748	0.003647	-0.007484	-0.004245	0.999963	
4244														-0.067507	-0.023022	9.839338	-0.578711	-0.815496	-0.007737	0.815499	-0.578747	0.003639	-0.007445	-0.004203	0.999963	
4245														-0.083730	-0.035112	9.823911	-0.578716	-0.815493	-0.007748	0.815495	-0.578752	0.003641	-0.007454	-0.004211	0.999963	
4246														-0.065020	-0.022664	9.780823	-0.578721	-0.815489	-0.007744	0.815491	-0.578758	0.003641	-0.007451	-0.004208	0.999963	
4247														-0.071136	-0.051054	9.810028	-0.578726	-0.815485	-0.007757	0.815488	-0.578763	0.003645	-0.007462	-0.004216	0.999963	
4248														-0.082834	-0.034032	9.794654	-0.578732	-0.815481	-0.007739	0.815483	-0.578769	0.003641	-0.007449	-0.004204	0.999963	
4249														-0.083946	-0.033637	9.809280	-0.578736	-0.815478	-0.007794	0.815481	-0.578773	0.003656	-0.007492	-0.004240	0.999963	
4250														-0.071946	-0.050042	9.810027	-0.578726	-0.815485	-0.007778	0.815488	-0.578762	0.003638	-0.007468	-0.004237	0.999963	
4251														-0.072823	-0.049344	9.824657	-0.578748	-0.815470	-0.007753	0.815472	-0.578785	0.003664	-0.007475	-0.004202	0.999963	
4252														-0.070044	-0.034286	9.810054	-0.578754	-0.815465	-0.007734	0.815468	-0.578791	0.003659	-0.007460	-0.004189	0.999963	
4253														-0.070930	-0.033689	9.824683	-0.578743	-0.815473	-0.007731	0.815476	-0.578780	0.003656	-0.007456	-0.004189	0.999963	
4254														-0.071112	-0.033339	9.824683	-0.578748	-0.815469	-0.007747	0.815472	-0.578785	0.003645	-0.007456	-0.004208	0.999963	
4255														-0.090806	-0.059662	9.838495	-0.578771	-0.815454	-0.007731	0.815456	-0.578807	0.003640	-0.007443	-0.004197	0.999963	
4256														-0.069882	-0.032786	9.795427	-0.578759	-0.815462	-0.007760	0.815465	-0.578796	0.003631	-0.007452	-0.004227	0.999963	
4257														-0.073046	-0.046775	9.810035	-0.578781	-0.815446	-0.007740	0.815449	-0.578818	0.003641	-0.007449	-0.004204	0.999963	
4258														-0.069608	-0.031809	9.780799	-0.578787	-0.815442	-0.007731	0.815445	-0.578823	0.003670	-0.007467	-0.004180	0.999963	
4259														-0.088875	-0.043328	9.823887	-0.578759	-0.815462	-0.007742	0.815464	-0.578796	0.003673	-0.007477	-0.004187	0.999963	
4260														-0.072421	-0.030541	9.824682	-0.578765	-0.815458	-0.007725	0.815460	-0.578802	0.003669	-0.007463	-0.004176	0.999963	
4261														-0.071816	-0.030078	9.810055	-0.578754	-0.815466	-0.007718	0.815468	-0.578791	0.003685	-0.007472	-0.004161	0.999963	
4262														-0.058964	-0.046414	9.796189	-0.578759	-0.815462	-0.007732	0.815464	-0.578796	0.003670	-0.007468	-0.004181	0.999963	
4263														-0.058639	-0.031371	9.825459	-0.578764	-0.815458	-0.007739	0.815461	-0.578801	0.003689	-0.007488	-0.004176	0.999963	
4264														-0.076202	-0.057880	9.795395	-0.578786	-0.815443	-0.007734	0.815445	-0.578823	0.003704	-0.007497	-0.004163	0.999963	
4265														-0.074944	-0.042893	9.810038	-0.578759	-0.815462	-0.007737	0.815465	-0.578795	0.003674	-0.007474	-0.004183	0.999963	
4266														-0.060543	-0.044596	9.810819	-0.578781	-0.815446	-0.007715	0.815449	-0.578818	0.003684	-0.007470	-0.004159	0.999963	
4267														-0.073133	-0.027390	9.810053	-0.578770	-0.815455	-0.007723	0.815457	-0.578806	0.003701	-0.007488	-0.004155	0.999963	
4268														-0.076880	-0.055959	9.795401	-0.578759	-0.815462	-0.007705	0.815464	-0.578796	0.003697	-0.007475	-0.004143	0.999963	
4269														-0.073416	-0.026323	9.810054	-0.578749	-0.815470	-0.007687	0.815472	-0.578785	0.003691	-0.007459	-0.004132	0.999964	
4270														-0.077826	-0.054798	9.810033	-0.578738	-0.815477	-0.007683	0.815480	-0.578774	0.003692	-0.007458	-0.004129	0.999964	
4271														-0.075902	-0.039796	9.810044	-0.578743	-0.815474	-0.007676	0.815476	-0.578779	0.003707	-0.007465	-0.004114	0.999964	
4272														-0.076948	-0.039123	9.824672	-0.578732	-0.815482	-0.007670	0.815484	-0.578768	0.003723	-0.007475	-0.004100	0.999964	
4273														-0.061827	-0.040971	9.810827	-0.578738	-0.815478	-0.007675	0.815480	-0.578774	0.003692	-0.007453	-0.004122	0.999964	
4274														-0.061015	-0.040639	9.796202	-0.578744	-0.815473	-0.007641	0.815475	-0.578780	0.003683	-0.007426	-0.004099	0.999964	
4275														-0.061849	-0.039977	9.810831	-0.578717	-0.815493	-0.007637	0.815495	-0.578753	0.003682	-0.007422	-0.004097	0.999964	
4276														-0.062078	-0.039566	9.810831	-0.578705	-0.815501	-0.007649	0.815503	-0.578741	0.003684	-0.007431	-0.004105	0.999964	
4277														-0.091250	-0.034891	9.809265	-0.578711	-0.815497	-0.007646	0.815499	-0.578747	0.003684	-0.007429	-0.004104	0.999964	
4278														-0.076128	-0.036736	9.795421	-0.578700	-0.815505	-0.007647	0.815507	-0.578736	0.003668	-0.007416	-0.004114	0.999964	
4279														-0.065419	-0.052800	9.825456	-0.578705	-0.815501	-0.007647	0.815503	-0.578741	0.003653	-0.007405	-0.004122	0.999964	
4280														-0.092394	-0.033487	9.823893	-0.578711	-0.815497	-0.007622	0.815499	-0.578747	0.003680	-0.007412	-0.004086	0.999964	
4281														-0.075900	-0.020516	9.824682	-0.578701	-0.815504	-0.007609	0.815506	-0.578736	0.003659	-0.007388	-0.004088	0.999964	
4282														-0.062075	-0.036912	9.796210	-0.578706	-0.815501	-0.007606	0.815503	-0.578742	0.003658	-0.007385	-0.004085	0.999964	
4283														-0.078162	-0.034010	9.824681	-0.578713	-0.815496	-0.007574	0.815498	-0.578748	0.003650	-0.007360	-0.004064	0.999965	
4284														-0.074203	-0.037889	9.806594	-0.578718	-0.815493	-0.007568	0.815494	-0.578753	0.003656	-0.007362	-0.004056	0.999965	
4285														-0.070245	-0.041769	9.788507	-0.578723	-0.815489	-0.007563	0.815491	-0.578759	0.003662	-0.007364	-0.004048	0.999965	
4286														-0.077836	-0.032503	9.810056	-0.578713	-0.815496	-0.007544	0.815498	-0.578748	0.003659	-0.007350	-0.004035	0.999965	
4287														-0.081017	-0.046417	9.824684	-0.578701	-0.815505	-0.007566	0.815506	-0.578736	0.003680	-0.007380	-0.004041	0.999965	
4288														-0.078389	-0.031477	9.810055	-0.578757	-0.815465	-0.007533	0.815467	-0.578792	0.003686	-0.007366	-0.004010	0.999965	
4289														-0.068281	-0.062087	9.810848	-0.578745	-0.815473	-0.007547	0.815475	-0.578780	0.003674	-0.007364	-0.004028	0.999965	
4290														-0.064331	-0.032847	9.810842	-0.578750	-0.815470	-0.007573	0.815472	-0.578785	0.003680	-0.007384	-0.004046	0.999965	
4291														-0.081943	-0.044807	9.824684	-0.578755	-0.815466	-0.007574	0.815468	-0.578790	0.003664	-0.007372	-0.004056	0.999965	
4292														-0.081336	-0.044471	9.810057	-0.578744	-0.815474	-0.007567	0.815476	-0.578779	0.003678	-0.007379	-0.004043	0.999965	
4293														-0.067198	-0.046172	9.810845	-0.578748	-0.815471	-0.007594	0.815473	-0.578784	0.003685	-0.007400	-0.004060	0.999964	
4294														-0.079077	-0.029539	9.795422	-0.578753	-0.815467	-0.007627	0.815470	-0.578788	0.003662	-0.007400	-0.004100	0.999964	
4295														-0.066297	-0.031121	9.825466	-0.578742	-0.815475	-0.007608	0.815477	-0.578778	0.003657	-0.007386	-0.004088	0.999964	
4296														-0.082278	-0.043169	9.810055	-0.578747	-0.815471	-0.007620	0.815473	-0.578783	0.003659	-0.007394	-0.004096	0.999964	
4297														-0.065134	-0.030397	9.796212	-0.578769	-0.815456	-0.007598	0.815458	-0.578805	0.003670	-0.007391	-0.004072	0.999964	
4298														-0.081894	-0.042331	9.795429	-0.578758	-0.815464	-0.007613	0.815466	-0.578794	0.003658	-0.007389	-0.004091	0.999964	
4299														-0.082466	-0.027058	9.839301	-0.578763	-0.815460	-0.007618	0.815462	-0.578798	0.003690	-0.007419	-0.004077	0.999964	
4300														-0.068979	-0.043485	9.810845	-0.578767	-0.815457	-0.007645	0.815459	-0.578803	0.003697	-0.007440	-0.004094	0.999964	
4301														-0.083529	-0.041040	9.810054	-0.578773	-0.815453	-0.007619	0.815455	-0.578809	0.003660	-0.007395	-0.004095	0.999964	
4302														-0.066185	-0.028385	9.796211	-0.578794	-0.815438	-0.007632	0.815440	-0.578830	0.003664	-0.007406	-0.004102	0.999964	
4303														-0.082940	-0.040326	9.795428	-0.578784	-0.815446	-0.007614	0.815448	-0.578819	0.003661	-0.007392	-0.004090	0.999964	
4304														-0.070101	-0.041734	9.825477	-0.578805	-0.815430	-0.007615	0.815432	-0.578841	0.003645	-0.007380	-0.004099	0.999964	
4305														-0.086022	-0.053861	9.810068	-0.578811	-0.815427	-0.007610	0.815429	-0.578846	0.003645	-0.007377	-0.004096	0.999964	
4306														-0.081982	-0.024308	9.810046	-0.578800	-0.815434	-0.007589	0.815436	-0.578835	0.003655	-0.007373	-0.004072	0.999965	
4307														-0.067771	-0.025731	9.810840	-0.578789	-0.815442	-0.007577	0.815444	-0.578824	0.003684	-0.007390	-0.004046	0.999965	
4308														-0.084619	-0.037564	9.810058	-0.578794	-0.815439	-0.007573	0.815440	-0.578829	0.003684	-0.007387	-0.004043	0.999965	
4309														-0.086156	-0.051683	9.795446	-0.578816	-0.815423	-0.007567	0.815425	-0.578851	0.003698	-0.007395	-0.004030	0.999965	
4310														-0.070648	-0.038693	9.810853	-0.578820	-0.815420	-0.007580	0.815421	-0.578856	0.003700	-0.007405	-0.004039	0.999964	
4311														-0.055567	-0.040567	9.797023	-0.578826	-0.815416	-0.007581	0.815418	-0.578861	0.003685	-0.007393	-0.004049	0.999964	
4312														-0.086274	-0.035776	9.824684	-0.578831	-0.815412	-0.007593	0.815414	-0.578866	0.003688	-0.007403	-0.004057	0.999964	
4313														-0.070456	-0.037724	9.796227	-0.578836	-0.815409	-0.007590	0.815410	-0.578872	0.003687	-0.007400	-0.004055	0.999964	
4314														-0.057833	-0.039092	9.826277	-0.578857	-0.815394	-0.007598	0.815395	-0.578893	0.003703	-0.007418	-0.004052	0.999964	
4315														-0.073058	-0.051359	9.796244	-0.578830	-0.815413	-0.007598	0.815415	-0.578865	0.003689	-0.007406	-0.004060	0.999964	
4316														-0.074016	-0.050770	9.810872	-0.578835	-0.815409	-0.007592	0.815411	-0.578871	0.003702	-0.007413	-0.004047	0.999964	
4317														-0.073499	-0.050335	9.796246	-0.578824	-0.815418	-0.007582	0.815419	-0.578859	0.003717	-0.007420	-0.004031	0.999964	
4318														-0.073102	-0.035064	9.825481	-0.578813	-0.815425	-0.007568	0.815427	-0.578848	0.003698	-0.007396	-0.004031	0.999965	
4319														-0.071596	-0.034888	9.796229	-0.578851	-0.815398	-0.007566	0.815400	-0.578887	0.003696	-0.007394	-0.004030	0.999965	
4320														-0.076788	-0.063352	9.810898	-0.578856	-0.815395	-0.007579	0.815396	-0.578891	0.003699	-0.007404	-0.004039	0.999964	
4321														-0.075046	-0.048547	9.810875	-0.578860	-0.815391	-0.007605	0.815393	-0.578896	0.003705	-0.007424	-0.004056	0.999964	
4322														-0.075332	-0.048193	9.810875	-0.578866	-0.815388	-0.007601	0.815389	-0.578901	0.003704	-0.007420	-0.004054	0.999964	
4323														-0.074269	-0.033151	9.825479	-0.578854	-0.815396	-0.007613	0.815397	-0.578890	0.003706	-0.007429	-0.004062	0.999964	
4324														-0.089584	-0.045434	9.795446	-0.578859	-0.815392	-0.007620	0.815394	-0.578895	0.003723	-0.007447	-0.004058	0.999964	
4325														-0.077024	-0.046827	9.825500	-0.578880	-0.815377	-0.007633	0.815379	-0.578916	0.003726	-0.007456	-0.004067	0.999964	
4326														-0.074288	-0.032175	9.810850	-0.578885	-0.815373	-0.007637	0.815375	-0.578921	0.003694	-0.007434	-0.004089	0.999964	
4327														-0.076497	-0.046383	9.810875	-0.578874	-0.815381	-0.007648	0.815383	-0.578910	0.003697	-0.007442	-0.004096	0.999964	
4328														-0.075386	-0.031289	9.825476	-0.578880	-0.815377	-0.007631	0.815379	-0.578916	0.003692	-0.007428	-0.004085	0.999964	
4329														-0.076787	-0.045427	9.810877	-0.578885	-0.815374	-0.007627	0.815375	-0.578921	0.003691	-0.007425	-0.004082	0.999964	
4330														-0.076955	-0.044870	9.810878	-0.578907	-0.815358	-0.007605	0.815360	-0.578943	0.003700	-0.007420	-0.004058	0.999964	
4331														-0.088848	-0.027982	9.795420	-0.578895	-0.815366	-0.007629	0.815368	-0.578931	0.003708	-0.007440	-0.004074	0.999964	
4332														-0.077577	-0.044103	9.810877	-0.578899	-0.815363	-0.007641	0.815365	-0.578935	0.003711	-0.007450	-0.004082	0.999964	
4333														-0.080622	-0.058117	9.825531	-0.578921	-0.815348	-0.007642	0.815350	-0.578957	0.003696	-0.007438	-0.004091	0.999964	
4334														-0.060599	-0.031118	9.797028	-0.578925	-0.815345	-0.007655	0.815346	-0.578962	0.003700	-0.007449	-0.004099	0.999964	
4335														-0.081940	-0.057321	9.840157	-0.578913	-0.815353	-0.007681	0.815355	-0.578949	0.003708	-0.007471	-0.004116	0.999964	
4336														-0.064147	-0.044859	9.811681	-0.578917	-0.815350	-0.007691	0.815352	-0.578954	0.003712	-0.007479	-0.004122	0.999964	
4337														-0.091845	-0.040508	9.780814	-0.578922	-0.815346	-0.007682	0.815348	-0.578959	0.003740	-0.007497	-0.004098	0.999963	
4338														-0.064747	-0.043775	9.811682	-0.578928	-0.815343	-0.007678	0.815344	-0.578964	0.003739	-0.007494	-0.004096	0.999964	
4339														-0.095890	-0.053660	9.810098	-0.578950	-0.815327	-0.007661	0.815329	-0.578986	0.003734	-0.007480	-0.004084	0.999964	
4340														-0.080267	-0.040674	9.825502	-0.578938	-0.815335	-0.007677	0.815337	-0.578975	0.003723	-0.007480	-0.004104	0.999964	
4341														-0.065122	-0.042583	9.811685	-0.578944	-0.815331	-0.007677	0.815333	-0.578980	0.003707	-0.007467	-0.004113	0.999964	
4342														-0.065713	-0.056980	9.782467	-0.578932	-0.815340	-0.007673	0.815342	-0.578968	0.003707	-0.007464	-0.004110	0.999964	
4343														-0.080054	-0.039609	9.810876	-0.578920	-0.815348	-0.007677	0.815350	-0.578956	0.003741	-0.007495	-0.004094	0.999964	
4344														-0.083186	-0.053501	9.825536	-0.578909	-0.815356	-0.007677	0.815358	-0.578945	0.003726	-0.007483	-0.004103	0.999964	
4345														-0.080350	-0.038753	9.810877	-0.578898	-0.815364	-0.007664	0.815366	-0.578934	0.003707	-0.007459	-0.004103	0.999964	
4346														-0.066847	-0.040304	9.826313	-0.578902	-0.815361	-0.007691	0.815363	-0.578939	0.003714	-0.007480	-0.004121	0.999964	
4347														-0.066230	-0.040103	9.811688	-0.578892	-0.815368	-0.007677	0.815370	-0.578928	0.003695	-0.007457	-0.004120	0.999964	
4348														-0.068446	-0.054044	9.811726	-0.578880	-0.815376	-0.007667	0.815378	-0.578917	0.003724	-0.007474	-0.004096	0.999964	
4349														-0.068717	-0.053475	9.811727	-0.578886	-0.815373	-0.007664	0.815375	-0.578922	0.003723	-0.007472	-0.004094	0.999964	
4350														-0.083372	-0.050979	9.810916	-0.578891	-0.815369	-0.007661	0.815371	-0.578927	0.003721	-0.007469	-0.004092	0.999964	
4351														-0.082257	-0.036034	9.825503	-0.578912	-0.815354	-0.007680	0.815356	-0.578948	0.003694	-0.007458	-0.004124	0.999964	
4352														-0.067265	-0.037879	9.811690	-0.578950	-0.815327	-0.007686	0.815329	-0.578986	0.003726	-0.007488	-0.004110	0.999964	
4353														-0.097352	-0.033020	9.824688	-0.578906	-0.815358	-0.007662	0.815360	-0.578942	0.003736	-0.007482	-0.004085	0.999964	
4354														-0.067759	-0.036796	9.811690	-0.578927	-0.815343	-0.007678	0.815345	-0.578963	0.003724	-0.007482	-0.004105	0.999964	
4355														-0.080824	-0.034722	9.781624	-0.578932	-0.815340	-0.007676	0.815341	-0.578968	0.003723	-0.007480	-0.004103	0.999964	
4356														-0.068075	-0.036159	9.811690	-0.578937	-0.815336	-0.007695	0.815338	-0.578973	0.003696	-0.007469	-0.004134	0.999964	
4357														-0.082699	-0.033940	9.810875	-0.578958	-0.815321	-0.007710	0.815323	-0.578994	0.003684	-0.007467	-0.004154	0.999963	
4358														-0.067597	-0.035785	9.797064	-0.578963	-0.815317	-0.007708	0.815320	-0.578999	0.003683	-0.007465	-0.004152	0.999964	
4359														-0.069704	-0.049843	9.797109	-0.578952	-0.815325	-0.007694	0.815327	-0.578989	0.003664	-0.007441	-0.004152	0.999964	
4360														-0.068577	-0.034571	9.811693	-0.578958	-0.815321	-0.007669	0.815323	-0.578994	0.003689	-0.007448	-0.004117	0.999964	
4361														-0.069929	-0.048733	9.797113	-0.578963	-0.815318	-0.007673	0.815320	-0.578999	0.003658	-0.007425	-0.004138	0.999964	
4362														-0.082552	-0.031744	9.796252	-0.578968	-0.815314	-0.007663	0.815316	-0.579004	0.003686	-0.007443	-0.004114	0.999964	
4363														-0.070273	-0.047821	9.797115	-0.578924	-0.815345	-0.007666	0.815348	-0.578960	0.003657	-0.007420	-0.004133	0.999964	
4364														-0.082855	-0.030992	9.796252	-0.578761	-0.815461	-0.007691	0.815463	-0.578797	0.003679	-0.007452	-0.004143	0.999964	
4365														-0.071540	-0.046954	9.811740	-0.578766	-0.815458	-0.007700	0.815460	-0.578802	0.003697	-0.007471	-0.004139	0.999964	
4366														-0.087003	-0.044317	9.825549	-0.578771	-0.815454	-0.007686	0.815456	-0.578808	0.003678	-0.007448	-0.004139	0.999964	
4367														-0.071888	-0.046047	9.811742	-0.578775	-0.815451	-0.007694	0.815453	-0.578812	0.003695	-0.007466	-0.004136	0.999964	
4368														-0.087828	-0.058293	9.796347	-0.578798	-0.815435	-0.007695	0.815437	-0.578834	0.003679	-0.007454	-0.004146	0.999964	
4369														-0.070234	-0.030954	9.811693	-0.578803	-0.815431	-0.007730	0.815433	-0.578839	0.003656	-0.007455	-0.004187	0.999963	
4370														-0.071644	-0.045382	9.797116	-0.578807	-0.815428	-0.007727	0.815430	-0.578844	0.003655	-0.007453	-0.004185	0.999963	
4371														-0.072630	-0.044872	9.811742	-0.578812	-0.815424	-0.007742	0.815427	-0.578849	0.003643	-0.007452	-0.004205	0.999963	
4372														-0.071545	-0.029910	9.826317	-0.578817	-0.815421	-0.007744	0.815423	-0.578854	0.003628	-0.007441	-0.004214	0.999963	
4373														-0.072943	-0.044234	9.811743	-0.578821	-0.815418	-0.007755	0.815421	-0.578858	0.003631	-0.007450	-0.004222	0.999963	
4374														-0.073174	-0.043830	9.811743	-0.578826	-0.815415	-0.007752	0.815417	-0.578862	0.003630	-0.007447	-0.004220	0.999963	
4375														-0.089797	-0.055823	9.810975	-0.578830	-0.815412	-0.007735	0.815414	-0.578866	0.003626	-0.007434	-0.004208	0.999964	
4376														-0.072553	-0.043045	9.797120	-0.578819	-0.815419	-0.007735	0.815422	-0.578855	0.003610	-0.007421	-0.004218	0.999964	
4377														-0.057983	-0.029591	9.827139	-0.578822	-0.815417	-0.007718	0.815420	-0.578859	0.003669	-0.007459	-0.004169	0.999963	
4378														-0.088546	-0.039675	9.810923	-0.578844	-0.815402	-0.007734	0.815404	-0.578880	0.003657	-0.007459	-0.004190	0.999963	
4379														-0.074297	-0.041386	9.811745	-0.578831	-0.815410	-0.007745	0.815413	-0.578868	0.003660	-0.007468	-0.004197	0.999963	
4380														-0.057865	-0.028435	9.812514	-0.578837	-0.815406	-0.007717	0.815409	-0.578874	0.003638	-0.007433	-0.004186	0.999964	
4381														-0.059138	-0.042666	9.797946	-0.578842	-0.815403	-0.007729	0.815405	-0.578879	0.003641	-0.007443	-0.004195	0.999964	
4382														-0.073904	-0.040199	9.797122	-0.578831	-0.815411	-0.007722	0.815414	-0.578867	0.003655	-0.007450	-0.004181	0.999964	
4383														-0.074983	-0.039460	9.811748	-0.578820	-0.815419	-0.007715	0.815422	-0.578856	0.003669	-0.007457	-0.004167	0.999964	
4384														-0.075258	-0.038898	9.811748	-0.578874	-0.815381	-0.007710	0.815383	-0.578910	0.003682	-0.007466	-0.004155	0.999963	
4385														-0.073468	-0.023773	9.811689	-0.578830	-0.815412	-0.007688	0.815414	-0.578867	0.003693	-0.007462	-0.004131	0.999964	
4386														-0.092936	-0.049954	9.825609	-0.578853	-0.815396	-0.007668	0.815398	-0.578889	0.003703	-0.007458	-0.004109	0.999964	
4387														-0.059477	-0.024691	9.812514	-0.578840	-0.815405	-0.007709	0.815407	-0.578877	0.003713	-0.007491	-0.004137	0.999963	
4388														-0.090807	-0.035004	9.810920	-0.578828	-0.815413	-0.007724	0.815415	-0.578865	0.003701	-0.007489	-0.004156	0.999963	
4389														-0.076491	-0.036544	9.811747	-0.578817	-0.815421	-0.007702	0.815423	-0.578853	0.003712	-0.007486	-0.004132	0.999963	
4390														-0.063414	-0.052711	9.798012	-0.578821	-0.815418	-0.007714	0.815420	-0.578858	0.003715	-0.007495	-0.004140	0.999963	
4391														-0.076076	-0.035753	9.797123	-0.578810	-0.815426	-0.007696	0.815428	-0.578846	0.003711	-0.007481	-0.004128	0.999964	
4392														-0.063759	-0.051801	9.798015	-0.578814	-0.815423	-0.007708	0.815425	-0.578851	0.003713	-0.007490	-0.004136	0.999963	
4393														-0.079296	-0.049334	9.811811	-0.578802	-0.815431	-0.007723	0.815434	-0.578839	0.003701	-0.007488	-0.004155	0.999963	
4394														-0.077382	-0.034587	9.811747	-0.578807	-0.815428	-0.007727	0.815431	-0.578843	0.003671	-0.007466	-0.004176	0.999963	
4395														-0.063881	-0.035943	9.827202	-0.578811	-0.815425	-0.007717	0.815427	-0.578848	0.003699	-0.007483	-0.004151	0.999963	
4396														-0.093500	-0.046274	9.796359	-0.578833	-0.815410	-0.007715	0.815412	-0.578869	0.003698	-0.007481	-0.004150	0.999963	
4397														-0.078063	-0.033167	9.811747	-0.578821	-0.815418	-0.007726	0.815420	-0.578857	0.003701	-0.007491	-0.004158	0.999963	
4398														-0.065694	-0.049367	9.812644	-0.578809	-0.815427	-0.007730	0.815429	-0.578845	0.003671	-0.007468	-0.004178	0.999963	
4399														-0.080153	-0.047050	9.811815	-0.578815	-0.815423	-0.007716	0.815425	-0.578851	0.003652	-0.007444	-0.004178	0.999964	
4400														-0.079104	-0.031961	9.826373	-0.578819	-0.815419	-0.007728	0.815422	-0.578855	0.003654	-0.007453	-0.004186	0.999963	
4401														-0.065911	-0.048235	9.812648	-0.578808	-0.815427	-0.007714	0.815430	-0.578844	0.003636	-0.007430	-0.004186	0.999964	
4402														-0.079291	-0.031011	9.826375	-0.578830	-0.815412	-0.007693	0.815414	-0.578866	0.003646	-0.007426	-0.004163	0.999964	
4403														-0.066250	-0.047220	9.812651	-0.578801	-0.815432	-0.007719	0.815435	-0.578837	0.003652	-0.007446	-0.004180	0.999964	
4404														-0.096226	-0.042735	9.825612	-0.578805	-0.815429	-0.007704	0.815432	-0.578842	0.003634	-0.007423	-0.004179	0.999964	
4405														-0.065388	-0.031774	9.827206	-0.578809	-0.815427	-0.007716	0.815429	-0.578845	0.003637	-0.007432	-0.004187	0.999964	
4406														-0.066784	-0.046066	9.812653	-0.578814	-0.815423	-0.007713	0.815426	-0.578850	0.003636	-0.007430	-0.004185	0.999964	
4407														-0.069751	-0.059940	9.827350	-0.578803	-0.815431	-0.007710	0.815434	-0.578839	0.003635	-0.007427	-0.004183	0.999964	
4408														-0.080743	-0.043216	9.797198	-0.578824	-0.815416	-0.007674	0.815419	-0.578860	0.003641	-0.007411	-0.004150	0.999964	
4409														-0.067292	-0.044494	9.812657	-0.578828	-0.815413	-0.007701	0.815416	-0.578864	0.003647	-0.007432	-0.004168	0.999964	
4410														-0.071422	-0.073172	9.812805	-0.578817	-0.815421	-0.007686	0.815424	-0.578853	0.003628	-0.007407	-0.004168	0.999964	
4411														-0.080107	-0.027158	9.811749	-0.578822	-0.815418	-0.007680	0.815420	-0.578858	0.003641	-0.007415	-0.004155	0.999964	
4412														-0.053263	-0.045042	9.813495	-0.578811	-0.815426	-0.007662	0.815428	-0.578847	0.003638	-0.007401	-0.004142	0.999964	
4413														-0.066669	-0.027926	9.827209	-0.578816	-0.815422	-0.007663	0.815425	-0.578851	0.003622	-0.007389	-0.004152	0.999964	
4414														-0.085122	-0.054603	9.826529	-0.578821	-0.815419	-0.007649	0.815422	-0.578856	0.003603	-0.007365	-0.004152	0.999964	
4415														-0.083560	-0.054639	9.797281	-0.578808	-0.815428	-0.007664	0.815431	-0.578844	0.003591	-0.007365	-0.004171	0.999964	
4416														-0.082534	-0.039537	9.811829	-0.578813	-0.815424	-0.007647	0.815427	-0.578849	0.003587	-0.007351	-0.004159	0.999964	
4417														-0.079050	-0.024900	9.782502	-0.578818	-0.815421	-0.007644	0.815424	-0.578853	0.003586	-0.007349	-0.004157	0.999964	
4418														-0.069264	-0.040448	9.827290	-0.578821	-0.815419	-0.007670	0.815421	-0.578857	0.003593	-0.007370	-0.004175	0.999964	
4419														-0.084102	-0.038186	9.826451	-0.578825	-0.815416	-0.007682	0.815419	-0.578861	0.003596	-0.007379	-0.004183	0.999964	
4420														-0.070172	-0.054744	9.798119	-0.578845	-0.815401	-0.007698	0.815404	-0.578881	0.003583	-0.007378	-0.004203	0.999964	
4421														-0.069266	-0.039736	9.812663	-0.578816	-0.815421	-0.007709	0.815424	-0.578853	0.003586	-0.007387	-0.004210	0.999964	
4422														-0.083112	-0.037518	9.797201	-0.578822	-0.815418	-0.007691	0.815421	-0.578858	0.003582	-0.007373	-0.004198	0.999964	
4423														-0.069556	-0.038775	9.812665	-0.578826	-0.815415	-0.007688	0.815418	-0.578862	0.003581	-0.007371	-0.004196	0.999964	
4424														-0.082217	-0.021910	9.811745	-0.578814	-0.815423	-0.007689	0.815426	-0.578850	0.003566	-0.007358	-0.004206	0.999964	
4425														-0.084398	-0.035916	9.811827	-0.578819	-0.815420	-0.007680	0.815423	-0.578855	0.003594	-0.007376	-0.004182	0.999964	
4426														-0.082931	-0.035854	9.782579	-0.578824	-0.815416	-0.007684	0.815419	-0.578860	0.003564	-0.007354	-0.004203	0.999964	
4427														-0.082639	-0.020558	9.811744	-0.578828	-0.815413	-0.007666	0.815416	-0.578864	0.003560	-0.007341	-0.004190	0.999964	
4428														-0.072940	-0.050894	9.827378	-0.578817	-0.815422	-0.007666	0.815425	-0.578852	0.003545	-0.007328	-0.004199	0.999964	
4429														-0.084842	-0.034280	9.811829	-0.578820	-0.815419	-0.007678	0.815422	-0.578856	0.003548	-0.007338	-0.004207	0.999964	
4430														-0.070579	-0.035819	9.812669	-0.578825	-0.815416	-0.007675	0.815419	-0.578860	0.003548	-0.007336	-0.004205	0.999964	
4431														-0.068706	-0.020960	9.812583	-0.578830	-0.815412	-0.007680	0.815416	-0.578865	0.003517	-0.007314	-0.004227	0.999964	
4432														-0.085381	-0.033134	9.811828	-0.578833	-0.815410	-0.007685	0.815413	-0.578869	0.003550	-0.007344	-0.004212	0.999964	
4433														-0.073166	-0.049175	9.812756	-0.578788	-0.815442	-0.007699	0.815445	-0.578823	0.003539	-0.007342	-0.004230	0.999964	
4434														-0.071393	-0.034199	9.812669	-0.578810	-0.815427	-0.007678	0.815430	-0.578845	0.003548	-0.007337	-0.004207	0.999964	
4435														-0.071521	-0.033806	9.812669	-0.578830	-0.815412	-0.007698	0.815415	-0.578866	0.003521	-0.007327	-0.004239	0.999964	
4436														-0.073761	-0.048080	9.812757	-0.578850	-0.815397	-0.007722	0.815401	-0.578886	0.003542	-0.007358	-0.004246	0.999964	
4437														-0.072050	-0.033159	9.812668	-0.578856	-0.815394	-0.007708	0.815397	-0.578891	0.003522	-0.007334	-0.004246	0.999964	
4438														-0.074052	-0.047124	9.812760	-0.578843	-0.815402	-0.007685	0.815406	-0.578879	0.003534	-0.007330	-0.004221	0.999964	
4439														-0.071398	-0.032197	9.798046	-0.578849	-0.815399	-0.007668	0.815402	-0.578884	0.003529	-0.007316	-0.004209	0.999964	
4440														-0.088621	-0.044146	9.811920	-0.578854	-0.815395	-0.007657	0.815399	-0.578889	0.003495	-0.007282	-0.004220	0.999965	
4441														-0.059744	-0.047497	9.813610	-0.578825	-0.815416	-0.007646	0.815419	-0.578860	0.003525	-0.007301	-0.004194	0.999965	
4442														-0.056325	-0.032824	9.784270	-0.578847	-0.815400	-0.007633	0.815403	-0.578882	0.003506	-0.007277	-0.004195	0.999965	
4443														-0.072704	-0.030087	9.812673	-0.578851	-0.815397	-0.007656	0.815401	-0.578886	0.003526	-0.007308	-0.004202	0.999964	
4444														-0.059650	-0.046323	9.798988	-0.578839	-0.815406	-0.007653	0.815409	-0.578874	0.003526	-0.007305	-0.004199	0.999965	
4445														-0.087712	-0.027295	9.811826	-0.578844	-0.815403	-0.007650	0.815406	-0.578879	0.003525	-0.007303	-0.004198	0.999965	
4446														-0.074223	-0.028664	9.827295	-0.578848	-0.815400	-0.007666	0.815403	-0.578883	0.003513	-0.007302	-0.004217	0.999964	
4447														-0.077367	-0.042510	9.842013	-0.578851	-0.815397	-0.007667	0.815400	-0.578887	0.003561	-0.007342	-0.004191	0.999964	
4448														-0.089605	-0.040699	9.797296	-0.578823	-0.815417	-0.007655	0.815421	-0.578858	0.003528	-0.007308	-0.004200	0.999964	
4449														-0.074960	-0.027283	9.827293	-0.578843	-0.815403	-0.007664	0.815406	-0.578879	0.003545	-0.007327	-0.004198	0.999964	
4450														-0.079913	-0.055549	9.842113	-0.578832	-0.815411	-0.007643	0.815414	-0.578867	0.003556	-0.007324	-0.004174	0.999964	
4451														-0.072918	-0.026784	9.783422	-0.578837	-0.815408	-0.007641	0.815411	-0.578872	0.003555	-0.007322	-0.004172	0.999964	
4452														-0.077551	-0.040166	9.827393	-0.578841	-0.815405	-0.007634	0.815408	-0.578876	0.003569	-0.007330	-0.004159	0.999964	
4453														-0.075339	-0.040236	9.783522	-0.578862	-0.815390	-0.007629	0.815393	-0.578897	0.003583	-0.007338	-0.004146	0.999964	
4454														-0.063545	-0.040897	9.828243	-0.578850	-0.815399	-0.007607	0.815401	-0.578885	0.003594	-0.007334	-0.004122	0.999965	
4455														-0.079245	-0.053112	9.812874	-0.578872	-0.815383	-0.007590	0.815386	-0.578907	0.003589	-0.007320	-0.004111	0.999965	
4456														-0.077598	-0.038023	9.812772	-0.578843	-0.815404	-0.007594	0.815406	-0.578878	0.003622	-0.007349	-0.004095	0.999965	
4457														-0.079743	-0.052137	9.812876	-0.578847	-0.815401	-0.007598	0.815403	-0.578882	0.003592	-0.007327	-0.004116	0.999965	
4458														-0.080747	-0.051470	9.827500	-0.578851	-0.815398	-0.007588	0.815400	-0.578886	0.003621	-0.007345	-0.004091	0.999965	
4459														-0.076767	-0.036963	9.783524	-0.578838	-0.815407	-0.007592	0.815409	-0.578873	0.003654	-0.007374	-0.004075	0.999965	
4460														-0.062458	-0.023493	9.813516	-0.578842	-0.815404	-0.007619	0.815406	-0.578877	0.003660	-0.007395	-0.004094	0.999964	
4461														-0.082726	-0.049739	9.842121	-0.578830	-0.815413	-0.007596	0.815415	-0.578865	0.003671	-0.007391	-0.004069	0.999964	
4462														-0.079366	-0.035034	9.812769	-0.578834	-0.815410	-0.007589	0.815412	-0.578869	0.003685	-0.007398	-0.004056	0.999964	
4463														-0.066111	-0.051116	9.799109	-0.578839	-0.815407	-0.007572	0.815408	-0.578875	0.003681	-0.007385	-0.004044	0.999965	
4464														-0.081716	-0.048433	9.812878	-0.578843	-0.815404	-0.007577	0.815406	-0.578878	0.003713	-0.007414	-0.004029	0.999964	
4465														-0.065639	-0.035291	9.813624	-0.578848	-0.815401	-0.007575	0.815402	-0.578883	0.003712	-0.007412	-0.004028	0.999964	
4466														-0.080201	-0.032842	9.812769	-0.578853	-0.815397	-0.007542	0.815398	-0.578888	0.003704	-0.007386	-0.004006	0.999965	
4467														-0.078700	-0.032726	9.783524	-0.578840	-0.815406	-0.007550	0.815407	-0.578876	0.003722	-0.007405	-0.004002	0.999965	
4468														-0.068050	-0.048235	9.813738	-0.578828	-0.815415	-0.007547	0.815416	-0.578864	0.003722	-0.007403	-0.004000	0.999965	
4469														-0.065493	-0.033584	9.799003	-0.578832	-0.815411	-0.007563	0.815413	-0.578868	0.003709	-0.007403	-0.004020	0.999965	
4470														-0.067525	-0.047817	9.799116	-0.578837	-0.815408	-0.007565	0.815409	-0.578873	0.003694	-0.007391	-0.004030	0.999965	
4471														-0.080258	-0.031112	9.798146	-0.578842	-0.815405	-0.007581	0.815407	-0.578877	0.003682	-0.007390	-0.004050	0.999964	
4472														-0.066831	-0.032478	9.813625	-0.578846	-0.815402	-0.007593	0.815404	-0.578881	0.003685	-0.007400	-0.004059	0.999964	
4473														-0.084286	-0.044376	9.827505	-0.578801	-0.815434	-0.007570	0.815435	-0.578836	0.003696	-0.007395	-0.004034	0.999965	
4474														-0.081623	-0.029628	9.812768	-0.578839	-0.815407	-0.007576	0.815409	-0.578874	0.003665	-0.007374	-0.004056	0.999965	
4475														-0.080119	-0.029524	9.783523	-0.578827	-0.815416	-0.007547	0.815417	-0.578862	0.003705	-0.007390	-0.004009	0.999965	
4476														-0.069443	-0.044701	9.813745	-0.578831	-0.815412	-0.007526	0.815414	-0.578867	0.003716	-0.007387	-0.003986	0.999965	
4477														-0.081279	-0.027972	9.798147	-0.578853	-0.815397	-0.007512	0.815398	-0.578888	0.003696	-0.007363	-0.003986	0.999965	
4478														-0.066904	-0.029459	9.799006	-0.578857	-0.815395	-0.007524	0.815396	-0.578892	0.003700	-0.007372	-0.003993	0.999965	
4479														-0.082579	-0.026936	9.812768	-0.578827	-0.815415	-0.007531	0.815417	-0.578862	0.003718	-0.007391	-0.003989	0.999965	
4480														-0.086577	-0.055474	9.813007	-0.578832	-0.815412	-0.007513	0.815413	-0.578867	0.003714	-0.007377	-0.003977	0.999965	
4481														-0.083865	-0.040686	9.798266	-0.578854	-0.815397	-0.007499	0.815398	-0.578889	0.003695	-0.007354	-0.003976	0.999965	
4482														-0.070277	-0.041991	9.813751	-0.578841	-0.815405	-0.007515	0.815407	-0.578876	0.003682	-0.007353	-0.003996	0.999965	
4483														-0.082230	-0.025367	9.798146	-0.578847	-0.815402	-0.007494	0.815403	-0.578881	0.003692	-0.007349	-0.003973	0.999965	
4484														-0.071506	-0.040688	9.828375	-0.578780	-0.815448	-0.007604	0.815450	-0.578816	0.003726	-0.007440	-0.004044	0.999964	
4485														-0.085389	-0.038435	9.812891	-0.578803	-0.815432	-0.007584	0.815434	-0.578839	0.003737	-0.007437	-0.004022	0.999964	
4486														-0.069964	-0.025046	9.828253	-0.578807	-0.815429	-0.007585	0.815431	-0.578843	0.003721	-0.007425	-0.004031	0.999964	
4487														-0.070033	-0.024596	9.828254	-0.578795	-0.815438	-0.007567	0.815439	-0.578831	0.003717	-0.007411	-0.004019	0.999964	
4488														-0.084904	-0.037165	9.798271	-0.578816	-0.815423	-0.007562	0.815424	-0.578852	0.003731	-0.007420	-0.004006	0.999964	
