// Start Time: Unknown: 
// Update Rate: 60.0Hz 
// Filter Profile: human (46.1) 
// Firmware Version: 4.6.0
PacketCounter	SampleTimeFine	Year	Month	Day	Second	UTC_Nano	UTC_Year	UTC_Month	UTC_Day	UTC_Hour	UTC_Minute	UTC_Second	UTC_Valid	Acc_X	Acc_Y	Acc_Z	Mat[1][1]	Mat[2][1]	Mat[3][1]	Mat[1][2]	Mat[2][2]	Mat[3][2]	Mat[1][3]	Mat[2][3]	Mat[3][3] 
13114								0.091951	0.041000	9.772767	0.999476	0.030934	-0.009549	-0.030973	0.999513	-0.003887	0.009424	0.004181	0.999947	
13115								0.084470	0.071534	9.730113	0.999473	0.031012	-0.009543	-0.031051	0.999510	-0.003909	0.009417	0.004203	0.999947	
13116								0.078251	0.035883	9.771051	0.999472	0.031055	-0.009538	-0.031094	0.999509	-0.003949	0.009411	0.004243	0.999947	
13117								0.075525	0.053635	9.733542	0.999470	0.031135	-0.009514	-0.031174	0.999506	-0.003984	0.009385	0.004279	0.999947	
13118								0.066785	0.035408	9.736974	0.999468	0.031195	-0.009519	-0.031234	0.999504	-0.004007	0.009390	0.004302	0.999947	
13119								0.079701	0.063692	9.794827	0.999467	0.031219	-0.009528	-0.031259	0.999503	-0.004059	0.009397	0.004355	0.999946	
13120								0.068405	0.062979	9.760749	0.999467	0.031238	-0.009492	-0.031278	0.999502	-0.004089	0.009359	0.004384	0.999947	
13121								0.076421	0.046345	9.752293	0.999465	0.031298	-0.009472	-0.031339	0.999500	-0.004144	0.009337	0.004439	0.999947	
13122								0.090829	0.043617	9.772766	0.999464	0.031367	-0.009426	-0.031407	0.999498	-0.004165	0.009290	0.004459	0.999947	
13123								0.099209	0.062371	9.769333	0.999462	0.031413	-0.009405	-0.031454	0.999496	-0.004204	0.009268	0.004498	0.999947	
13124								0.080533	0.034306	9.757446	0.999461	0.031461	-0.009388	-0.031501	0.999495	-0.004230	0.009250	0.004524	0.999947	
13125								0.067300	0.064412	9.760747	0.999460	0.031495	-0.009349	-0.031535	0.999494	-0.004266	0.009210	0.004558	0.999947	
13126								0.092304	0.049299	9.740407	0.999458	0.031552	-0.009339	-0.031594	0.999491	-0.004328	0.009198	0.004621	0.999947	
13127								0.078667	0.043941	9.738690	0.999459	0.031560	-0.009281	-0.031601	0.999491	-0.004347	0.009139	0.004638	0.999947	
13938								0.089761	0.058261	9.766407	0.999485	0.031022	-0.008224	-0.031063	0.999505	-0.004890	0.008068	0.005143	0.999954	
13939								0.080281	0.048057	9.751198	0.999484	0.031034	-0.008229	-0.031075	0.999505	-0.004909	0.008073	0.005163	0.999954	
13940								0.065632	0.050387	9.730423	0.999484	0.031049	-0.008222	-0.031090	0.999505	-0.004911	0.008065	0.005164	0.999954	
13941								0.081192	0.068095	9.793274	0.999484	0.031052	-0.008197	-0.031093	0.999504	-0.004908	0.008041	0.005160	0.999954	
13942								0.088757	0.059610	9.766408	0.999485	0.031032	-0.008218	-0.031072	0.999505	-0.004895	0.008062	0.005148	0.999954	
13943								0.075464	0.053595	9.764632	0.999486	0.031001	-0.008203	-0.031042	0.999506	-0.004890	0.008047	0.005142	0.999954	
13944								0.088497	0.060247	9.766407	0.999485	0.031006	-0.008237	-0.031047	0.999506	-0.004914	0.008081	0.005167	0.999954	
13945								0.072688	0.050505	9.797062	0.999484	0.031042	-0.008224	-0.031083	0.999505	-0.004884	0.008068	0.005137	0.999954	
13946								0.086847	0.068946	9.747406	0.999484	0.031038	-0.008227	-0.031079	0.999505	-0.004901	0.008071	0.005154	0.999954	
13947								0.072222	0.051080	9.797062	0.999484	0.031039	-0.008220	-0.031079	0.999505	-0.004885	0.008064	0.005138	0.999954	
13948								0.087682	0.061273	9.766408	0.999484	0.031040	-0.008213	-0.031080	0.999505	-0.004869	0.008058	0.005122	0.999954	
13949								0.074435	0.055298	9.764631	0.999484	0.031048	-0.008236	-0.031089	0.999505	-0.004875	0.008081	0.005129	0.999954	
13950								0.070192	0.032509	9.754992	0.999484	0.031052	-0.008211	-0.031092	0.999505	-0.004873	0.008056	0.005125	0.999954	
13951								0.080599	0.035217	9.789201	0.999484	0.031028	-0.008247	-0.031069	0.999505	-0.004862	0.008092	0.005116	0.999954	
13952								0.081911	0.074821	9.760836	0.999484	0.031048	-0.008228	-0.031089	0.999505	-0.004846	0.008073	0.005099	0.999954	
13953								0.077643	0.052093	9.751198	0.999485	0.031024	-0.008240	-0.031065	0.999505	-0.004878	0.008084	0.005131	0.999954	
13954								0.069684	0.061214	9.778059	0.999480	0.031163	-0.008295	-0.031205	0.999501	-0.004924	0.008138	0.005180	0.999953	
13955								0.082430	0.040148	9.756770	0.999479	0.031178	-0.008291	-0.031219	0.999501	-0.004910	0.008134	0.005166	0.999954	
13956								0.069044	0.061609	9.778061	0.999479	0.031199	-0.008255	-0.031240	0.999500	-0.004907	0.008098	0.005162	0.999954	
13957								0.068683	0.061901	9.778061	0.999480	0.031180	-0.008258	-0.031222	0.999500	-0.004907	0.008101	0.005162	0.999954	
13958								0.076277	0.053420	9.751202	0.999479	0.031198	-0.008254	-0.031239	0.999500	-0.004893	0.008097	0.005148	0.999954	
13959								0.062912	0.047431	9.749425	0.999478	0.031229	-0.008249	-0.031270	0.999499	-0.004896	0.008092	0.005152	0.999954	
13960								0.095533	0.039622	9.777557	0.999479	0.031191	-0.008265	-0.031232	0.999500	-0.004897	0.008108	0.005153	0.999954	
13961								0.094099	0.048025	9.758553	0.999478	0.031222	-0.008263	-0.031263	0.999499	-0.004886	0.008106	0.005141	0.999954	
13962								0.058417	0.052529	9.762854	0.999479	0.031196	-0.008237	-0.031237	0.999500	-0.004863	0.008081	0.005118	0.999954	
13963								0.070031	0.067077	9.745628	0.999479	0.031190	-0.008261	-0.031231	0.999500	-0.004852	0.008105	0.005107	0.999954	
13964								0.076478	0.046691	9.770207	0.999480	0.031171	-0.008264	-0.031212	0.999501	-0.004852	0.008108	0.005107	0.999954	
13965								0.089498	0.053262	9.771984	0.999481	0.031134	-0.008279	-0.031175	0.999502	-0.004852	0.008124	0.005108	0.999954	
13966								0.061726	0.049207	9.749423	0.999480	0.031168	-0.008260	-0.031209	0.999501	-0.004853	0.008104	0.005108	0.999954	
13967								0.078391	0.051392	9.737775	0.999481	0.031138	-0.008246	-0.031178	0.999502	-0.004848	0.008091	0.005103	0.999954	
13968								0.093874	0.041530	9.777565	0.999480	0.031167	-0.008247	-0.031208	0.999501	-0.004822	0.008093	0.005077	0.999954	
13969								0.087193	0.062453	9.752982	0.999480	0.031180	-0.008252	-0.031220	0.999501	-0.004841	0.008097	0.005096	0.999954	
13970								0.079202	0.044120	9.756780	0.999480	0.031174	-0.008273	-0.031214	0.999501	-0.004845	0.008117	0.005101	0.999954	
13971								0.073994	0.056983	9.751199	0.999480	0.031169	-0.008293	-0.031210	0.999501	-0.004849	0.008138	0.005105	0.999954	
13972								0.077858	0.052817	9.737771	0.999480	0.031167	-0.008305	-0.031207	0.999501	-0.004820	0.008150	0.005077	0.999954	
13973								0.080391	0.036667	9.775784	0.999479	0.031180	-0.008315	-0.031221	0.999501	-0.004809	0.008161	0.005066	0.999954	
13974								0.078901	0.044975	9.756778	0.999480	0.031166	-0.008306	-0.031206	0.999501	-0.004791	0.008153	0.005048	0.999954	
13975								0.082647	0.068349	9.766404	0.999479	0.031196	-0.008302	-0.031236	0.999501	-0.004795	0.008148	0.005052	0.999954	
13976								0.100791	0.062371	9.773763	0.999479	0.031178	-0.008308	-0.031219	0.999501	-0.004780	0.008155	0.005037	0.999954	
13977								0.091437	0.051989	9.758558	0.999479	0.031176	-0.008313	-0.031217	0.999501	-0.004781	0.008160	0.005038	0.999954	
13978								0.074128	0.050310	9.770207	0.999480	0.031165	-0.008290	-0.031205	0.999502	-0.004761	0.008137	0.005017	0.999954	
13979								0.083043	0.061238	9.785413	0.999480	0.031161	-0.008292	-0.031202	0.999502	-0.004778	0.008139	0.005035	0.999954	
13980								0.078822	0.038510	9.775790	0.999480	0.031177	-0.008285	-0.031217	0.999501	-0.004780	0.008132	0.005036	0.999954	
13981								0.089050	0.061360	9.739553	0.999480	0.031177	-0.008276	-0.031217	0.999501	-0.004779	0.008123	0.005035	0.999954	
13982								0.080974	0.070336	9.766404	0.999479	0.031194	-0.008272	-0.031234	0.999501	-0.004765	0.008119	0.005021	0.999954	
13983								0.081868	0.034849	9.762369	0.999480	0.031185	-0.008248	-0.031225	0.999501	-0.004745	0.008096	0.005000	0.999955	
13984								0.068690	0.056413	9.783634	0.999479	0.031191	-0.008282	-0.031231	0.999501	-0.004768	0.008129	0.005024	0.999954	
13985								0.089594	0.054459	9.758562	0.999480	0.031171	-0.008283	-0.031211	0.999501	-0.004784	0.008129	0.005040	0.999954	
13986								0.084105	0.067400	9.752976	0.999480	0.031155	-0.008268	-0.031195	0.999502	-0.004796	0.008114	0.005051	0.999954	
13987								0.085130	0.059493	9.771987	0.999480	0.031158	-0.008264	-0.031198	0.999502	-0.004765	0.008112	0.005020	0.999954	
13988								0.088785	0.055284	9.758565	0.999480	0.031158	-0.008255	-0.031198	0.999502	-0.004764	0.008103	0.005019	0.999955	
13989								0.080674	0.064327	9.785413	0.999480	0.031160	-0.008245	-0.031200	0.999502	-0.004763	0.008093	0.005018	0.999955	
13990								0.088359	0.055839	9.758565	0.999481	0.031140	-0.008266	-0.031180	0.999502	-0.004750	0.008114	0.005005	0.999955	
13991								0.093295	0.043566	9.764154	0.999481	0.031146	-0.008227	-0.031186	0.999502	-0.004745	0.008075	0.004999	0.999955	
13992								0.070826	0.054558	9.770209	0.999481	0.031152	-0.008262	-0.031192	0.999502	-0.004768	0.008109	0.005024	0.999955	
13993								0.074656	0.050525	9.756785	0.999482	0.031123	-0.008250	-0.031163	0.999503	-0.004749	0.008099	0.005003	0.999955	
13994								0.066518	0.059548	9.783630	0.999482	0.031122	-0.008238	-0.031162	0.999503	-0.004763	0.008086	0.005018	0.999955	
13995								0.083370	0.061936	9.771987	0.999482	0.031114	-0.008256	-0.031154	0.999503	-0.004783	0.008103	0.005038	0.999954	
13996								0.087196	0.057987	9.758563	0.999482	0.031110	-0.008262	-0.031150	0.999503	-0.004785	0.008109	0.005040	0.999954	
13997								0.083126	0.062681	9.771984	0.999482	0.031091	-0.008265	-0.031132	0.999504	-0.004784	0.008112	0.005039	0.999954	
13998								0.086764	0.058627	9.758563	0.999481	0.031126	-0.008246	-0.031166	0.999503	-0.004786	0.008093	0.005040	0.999955	
13999								0.069440	0.057109	9.770204	0.999482	0.031106	-0.008246	-0.031146	0.999503	-0.004801	0.008092	0.005055	0.999954	
14000								0.079743	0.032461	9.781389	0.999482	0.031120	-0.008257	-0.031161	0.999503	-0.004789	0.008103	0.005044	0.999954	
14001								0.086215	0.059538	9.758563	0.999482	0.031104	-0.008262	-0.031144	0.999504	-0.004773	0.008110	0.005028	0.999954	
14002								0.089939	0.055327	9.745142	0.999482	0.031106	-0.008256	-0.031146	0.999504	-0.004758	0.008104	0.005013	0.999955	
14003								0.074033	0.045471	9.775797	0.999482	0.031104	-0.008264	-0.031144	0.999504	-0.004745	0.008112	0.004999	0.999955	
14004								0.085567	0.060104	9.758565	0.999482	0.031107	-0.008240	-0.031147	0.999504	-0.004742	0.008088	0.004996	0.999955	
14005								0.086441	0.052266	9.777582	0.999482	0.031111	-0.008216	-0.031151	0.999503	-0.004739	0.008064	0.004992	0.999955	
14006								0.082332	0.056896	9.791002	0.999482	0.031121	-0.008242	-0.031160	0.999503	-0.004730	0.008090	0.004984	0.999955	
14007								0.076990	0.042213	9.762379	0.999482	0.031102	-0.008242	-0.031142	0.999504	-0.004745	0.008090	0.004999	0.999955	
14008								0.072860	0.046820	9.775800	0.999482	0.031104	-0.008238	-0.031144	0.999504	-0.004714	0.008087	0.004968	0.999955	
14009								0.085698	0.053340	9.777583	0.999482	0.031103	-0.008226	-0.031143	0.999504	-0.004728	0.008075	0.004982	0.999955	
14010								0.068373	0.051816	9.789220	0.999482	0.031119	-0.008219	-0.031158	0.999503	-0.004730	0.008068	0.004984	0.999955	
14011								0.100913	0.064080	9.746930	0.999482	0.031100	-0.008222	-0.031140	0.999504	-0.004730	0.008071	0.004984	0.999955	
14012								0.074396	0.051797	9.743366	0.999483	0.031104	-0.008198	-0.031143	0.999504	-0.004727	0.008047	0.004980	0.999955	
14013								0.080748	0.058861	9.791004	0.999483	0.031104	-0.008198	-0.031143	0.999504	-0.004727	0.008047	0.004980	0.999955	
14014								0.079269	0.067188	9.771987	0.999483	0.031088	-0.008183	-0.031128	0.999504	-0.004739	0.008032	0.004992	0.999955	
14015								0.088129	0.050721	9.764168	0.999482	0.031119	-0.008179	-0.031159	0.999503	-0.004743	0.008027	0.004995	0.999955	
14016								0.070864	0.048984	9.775804	0.999482	0.031121	-0.008175	-0.031160	0.999503	-0.004712	0.008025	0.004964	0.999955	
14017								0.100733	0.057427	9.765953	0.999482	0.031121	-0.008163	-0.031160	0.999503	-0.004727	0.008012	0.004979	0.999956	
14018								0.075487	0.037047	9.781406	0.999481	0.031155	-0.008147	-0.031194	0.999502	-0.004713	0.007996	0.004964	0.999956	
14019								0.086995	0.051628	9.764173	0.999481	0.031172	-0.008143	-0.031211	0.999502	-0.004699	0.007992	0.004951	0.999956	
14020								0.068390	0.058143	9.756788	0.999481	0.031186	-0.008133	-0.031225	0.999501	-0.004716	0.007982	0.004967	0.999956	
14021								0.100958	0.050318	9.784978	0.999481	0.031171	-0.008145	-0.031210	0.999502	-0.004670	0.007996	0.004921	0.999956	
14022								0.069453	0.050352	9.775807	0.999479	0.031229	-0.008161	-0.031268	0.999500	-0.004680	0.008011	0.004933	0.999956	
14023								0.078602	0.034112	9.767991	0.999480	0.031202	-0.008185	-0.031241	0.999501	-0.004730	0.008033	0.004983	0.999955	
14024								0.104656	0.047213	9.771557	0.999478	0.031251	-0.008171	-0.031290	0.999499	-0.004718	0.008020	0.004971	0.999955	
14025								0.090009	0.076719	9.773767	0.999479	0.031219	-0.008175	-0.031258	0.999500	-0.004701	0.008024	0.004954	0.999956	
14026								0.063579	0.064343	9.770199	0.999479	0.031219	-0.008166	-0.031258	0.999500	-0.004700	0.008015	0.004953	0.999956	
14027								0.076418	0.043355	9.748973	0.999479	0.031235	-0.008162	-0.031274	0.999500	-0.004687	0.008012	0.004939	0.999956	
14028								0.086798	0.046127	9.783193	0.999479	0.031230	-0.008185	-0.031269	0.999500	-0.004676	0.008035	0.004929	0.999956	
14029								0.085391	0.054427	9.764172	0.999478	0.031247	-0.008182	-0.031286	0.999500	-0.004662	0.008032	0.004915	0.999956	
14030								0.068069	0.052806	9.775804	0.999479	0.031231	-0.008167	-0.031270	0.999500	-0.004674	0.008017	0.004927	0.999956	
14031								0.070378	0.056899	9.743368	0.999479	0.031231	-0.008158	-0.031269	0.999500	-0.004674	0.008008	0.004927	0.999956	
14032								0.089761	0.042954	9.769781	0.999478	0.031262	-0.008153	-0.031301	0.999499	-0.004677	0.008003	0.004930	0.999956	
14033								0.084238	0.055833	9.764174	0.999478	0.031261	-0.008141	-0.031300	0.999499	-0.004692	0.007990	0.004944	0.999956	
14034								0.089225	0.043516	9.769784	0.999478	0.031265	-0.008140	-0.031304	0.999499	-0.004645	0.007991	0.004898	0.999956	
14035								0.066726	0.054072	9.775806	0.999478	0.031266	-0.008134	-0.031305	0.999499	-0.004630	0.007985	0.004882	0.999956	
14036								0.075717	0.037477	9.768001	0.999478	0.031279	-0.008142	-0.031318	0.999499	-0.004634	0.007993	0.004886	0.999956	
14037								0.074294	0.073309	9.771982	0.999477	0.031279	-0.008153	-0.031317	0.999499	-0.004605	0.008005	0.004858	0.999956	
14038								0.070120	0.050307	9.762393	0.999478	0.031282	-0.008129	-0.031320	0.999499	-0.004602	0.007981	0.004854	0.999956	
14039								0.099928	0.058695	9.752553	0.999477	0.031285	-0.008125	-0.031323	0.999499	-0.004571	0.007978	0.004823	0.999957	
14040								0.082581	0.057045	9.764181	0.999479	0.031252	-0.008105	-0.031290	0.999500	-0.004597	0.007957	0.004848	0.999957	
14041								0.065272	0.055557	9.775807	0.999479	0.031250	-0.008110	-0.031288	0.999500	-0.004599	0.007963	0.004850	0.999957	
14042								0.069050	0.051586	9.762394	0.999479	0.031245	-0.008113	-0.031283	0.999500	-0.004616	0.007965	0.004868	0.999956	
14043								0.089794	0.049535	9.737355	0.999479	0.031245	-0.008104	-0.031283	0.999500	-0.004616	0.007956	0.004867	0.999957	
14044								0.085531	0.081846	9.773765	0.999479	0.031260	-0.008095	-0.031298	0.999499	-0.004632	0.007946	0.004883	0.999957	
14045								0.081477	0.059197	9.764178	0.999478	0.031283	-0.008117	-0.031321	0.999499	-0.004656	0.007967	0.004908	0.999956	
14046								0.081344	0.059542	9.764177	0.999478	0.031268	-0.008108	-0.031307	0.999499	-0.004639	0.007959	0.004890	0.999956	
14047								0.086309	0.047293	9.769793	0.999478	0.031268	-0.008099	-0.031306	0.999499	-0.004639	0.007950	0.004890	0.999956	
14048								0.082123	0.052056	9.783204	0.999479	0.031250	-0.008098	-0.031288	0.999500	-0.004654	0.007949	0.004905	0.999956	
14049								0.084542	0.056086	9.750767	0.999478	0.031266	-0.008095	-0.031304	0.999499	-0.004640	0.007945	0.004891	0.999956	
14050								0.076485	0.065029	9.777588	0.999478	0.031265	-0.008103	-0.031303	0.999499	-0.004627	0.007954	0.004878	0.999956	
14051								0.076305	0.037706	9.754597	0.999479	0.031235	-0.008089	-0.031273	0.999500	-0.004622	0.007940	0.004872	0.999957	
14052								0.083928	0.056717	9.750768	0.999479	0.031233	-0.008097	-0.031271	0.999500	-0.004609	0.007949	0.004860	0.999957	
14053								0.088967	0.071896	9.779377	0.999479	0.031235	-0.008094	-0.031272	0.999500	-0.004578	0.007947	0.004829	0.999957	
14054								0.067836	0.047131	9.781419	0.999478	0.031260	-0.008098	-0.031298	0.999499	-0.004615	0.007950	0.004866	0.999957	
14055								0.084570	0.049631	9.769796	0.999478	0.031277	-0.008074	-0.031315	0.999499	-0.004629	0.007925	0.004880	0.999957	
14056								0.071244	0.043523	9.768010	0.999480	0.031213	-0.008091	-0.031251	0.999501	-0.004595	0.007943	0.004845	0.999957	
14057								0.082781	0.058216	9.750769	0.999480	0.031229	-0.008063	-0.031267	0.999500	-0.004624	0.007914	0.004874	0.999957	
14058								0.079857	0.054916	9.783207	0.999479	0.031243	-0.008074	-0.031281	0.999500	-0.004613	0.007925	0.004863	0.999957	
14059								0.071842	0.036395	9.787039	0.999479	0.031259	-0.008067	-0.031297	0.999499	-0.004615	0.007919	0.004865	0.999957	
14060								0.100384	0.052967	9.758179	0.999480	0.031229	-0.008055	-0.031267	0.999501	-0.004595	0.007908	0.004844	0.999957	
14061								0.080580	0.047318	9.802238	0.999481	0.031196	-0.008080	-0.031233	0.999502	-0.004550	0.007934	0.004800	0.999957	
14062								0.083189	0.051347	9.769799	0.999481	0.031172	-0.008089	-0.031209	0.999502	-0.004598	0.007942	0.004848	0.999957	
14063								0.070060	0.045615	9.768009	0.999480	0.031196	-0.008115	-0.031234	0.999501	-0.004606	0.007967	0.004857	0.999956	
14064								0.083007	0.052275	9.769796	0.999481	0.031165	-0.008101	-0.031203	0.999502	-0.004602	0.007953	0.004852	0.999957	
14065								0.074789	0.033755	9.773633	0.999481	0.031169	-0.008076	-0.031207	0.999502	-0.004598	0.007929	0.004848	0.999957	
14066								0.076906	0.065350	9.764176	0.999482	0.031156	-0.008047	-0.031194	0.999503	-0.004608	0.007900	0.004857	0.999957	
14067								0.081846	0.053256	9.769800	0.999482	0.031154	-0.008053	-0.031191	0.999503	-0.004610	0.007905	0.004859	0.999957	
14068								0.080247	0.061725	9.750769	0.999482	0.031171	-0.008028	-0.031209	0.999502	-0.004624	0.007880	0.004872	0.999957	
14069								0.081113	0.054011	9.769802	0.999482	0.031174	-0.008004	-0.031212	0.999502	-0.004621	0.007856	0.004869	0.999957	
14070								0.067693	0.047910	9.768014	0.999481	0.031191	-0.008000	-0.031228	0.999502	-0.004608	0.007853	0.004855	0.999957	
14071								0.076711	0.058897	9.783209	0.999481	0.031185	-0.008021	-0.031222	0.999502	-0.004613	0.007873	0.004861	0.999957	
14072								0.097385	0.056913	9.758187	0.999482	0.031189	-0.007976	-0.031226	0.999502	-0.004638	0.007827	0.004884	0.999957	
14073								0.076070	0.059720	9.783209	0.999482	0.031168	-0.007997	-0.031206	0.999502	-0.004625	0.007849	0.004872	0.999957	
14074								0.083898	0.051285	9.756398	0.999482	0.031165	-0.008000	-0.031202	0.999502	-0.004642	0.007851	0.004889	0.999957	
14075								0.088856	0.066712	9.784997	0.999482	0.031166	-0.007994	-0.031204	0.999502	-0.004626	0.007845	0.004873	0.999957	
14076								0.062506	0.054311	9.781417	0.999481	0.031194	-0.008004	-0.031232	0.999501	-0.004632	0.007856	0.004880	0.999957	
14077								0.101704	0.046171	9.763817	0.999482	0.031175	-0.008004	-0.031212	0.999502	-0.004647	0.007856	0.004895	0.999957	
14078								0.092190	0.063407	9.771591	0.999481	0.031209	-0.007985	-0.031247	0.999501	-0.004648	0.007836	0.004895	0.999957	
14079								0.078766	0.057385	9.769802	0.999481	0.031210	-0.007977	-0.031247	0.999501	-0.004648	0.007827	0.004894	0.999957	
14080								0.077218	0.065836	9.750766	0.999482	0.031190	-0.007977	-0.031228	0.999501	-0.004663	0.007828	0.004909	0.999957	
14081								0.078250	0.058000	9.769803	0.999481	0.031211	-0.007961	-0.031249	0.999501	-0.004631	0.007812	0.004877	0.999958	
14082								0.091223	0.064526	9.771593	0.999482	0.031187	-0.007993	-0.031225	0.999502	-0.004636	0.007845	0.004883	0.999957	
14083								0.057243	0.033328	9.771853	0.999482	0.031185	-0.008002	-0.031223	0.999502	-0.004623	0.007854	0.004870	0.999957	
14084								0.081978	0.054336	9.756397	0.999482	0.031183	-0.008008	-0.031220	0.999502	-0.004624	0.007859	0.004872	0.999957	
14085								0.076485	0.067098	9.750764	0.999482	0.031168	-0.007996	-0.031205	0.999502	-0.004622	0.007848	0.004869	0.999957	
14086								0.081379	0.054925	9.756399	0.999482	0.031171	-0.007972	-0.031209	0.999502	-0.004619	0.007824	0.004865	0.999958	
14087								0.071877	0.044464	9.741208	0.999483	0.031141	-0.007958	-0.031179	0.999503	-0.004614	0.007810	0.004860	0.999958	
14088								0.076745	0.059890	9.769803	0.999482	0.031172	-0.007953	-0.031209	0.999502	-0.004618	0.007805	0.004863	0.999958	
14089								0.072615	0.064772	9.783203	0.999483	0.031148	-0.007966	-0.031186	0.999503	-0.004650	0.007817	0.004896	0.999957	
14090								0.094737	0.054745	9.777228	0.999483	0.031148	-0.007956	-0.031186	0.999503	-0.004650	0.007808	0.004895	0.999958	
14091								0.085316	0.044391	9.762037	0.999483	0.031148	-0.007944	-0.031185	0.999503	-0.004664	0.007795	0.004910	0.999958	
14092								0.082450	0.041052	9.794477	0.999483	0.031161	-0.007956	-0.031199	0.999502	-0.004653	0.007807	0.004899	0.999958	
14093								0.075645	0.061745	9.769800	0.999482	0.031181	-0.007938	-0.031218	0.999502	-0.004637	0.007789	0.004883	0.999958	
14094								0.084597	0.045125	9.762040	0.999483	0.031148	-0.007938	-0.031185	0.999503	-0.004635	0.007790	0.004880	0.999958	
14095								0.076570	0.054232	9.788839	0.999483	0.031142	-0.007959	-0.031180	0.999503	-0.004639	0.007810	0.004885	0.999958	
14096								0.092312	0.064611	9.758189	0.999483	0.031137	-0.007979	-0.031175	0.999503	-0.004643	0.007831	0.004889	0.999957	
14097								0.080438	0.050402	9.775437	0.999483	0.031154	-0.007978	-0.031191	0.999503	-0.004615	0.007831	0.004861	0.999958	
14098								0.080261	0.050671	9.775437	0.999482	0.031165	-0.007983	-0.031202	0.999502	-0.004634	0.007835	0.004881	0.999957	
14099								0.098389	0.044979	9.782869	0.999482	0.031165	-0.007974	-0.031202	0.999502	-0.004634	0.007826	0.004880	0.999957	
14100								0.082521	0.054913	9.742997	0.999482	0.031165	-0.007985	-0.031202	0.999502	-0.004605	0.007838	0.004852	0.999958	
14101								0.096876	0.053422	9.763829	0.999482	0.031174	-0.008008	-0.031211	0.999502	-0.004612	0.007860	0.004859	0.999957	
14102								0.065487	0.053473	9.754602	0.999481	0.031184	-0.008034	-0.031221	0.999502	-0.004603	0.007887	0.004852	0.999957	
14103								0.075539	0.056456	9.788835	0.999482	0.031177	-0.007975	-0.031215	0.999502	-0.004609	0.007827	0.004855	0.999958	
14104								0.092262	0.058873	9.777228	0.999482	0.031182	-0.008010	-0.031220	0.999502	-0.004633	0.007861	0.004880	0.999957	
14105								0.079142	0.052804	9.775435	0.999482	0.031185	-0.008006	-0.031223	0.999502	-0.004602	0.007859	0.004849	0.999957	
14106								0.090796	0.067484	9.758183	0.999481	0.031193	-0.008026	-0.031231	0.999501	-0.004623	0.007878	0.004872	0.999957	
14107								0.077571	0.061546	9.756391	0.999481	0.031194	-0.008017	-0.031231	0.999501	-0.004623	0.007869	0.004871	0.999957	
14108								0.077382	0.061803	9.756390	0.999481	0.031207	-0.008028	-0.031245	0.999501	-0.004612	0.007880	0.004860	0.999957	
14109								0.074705	0.058284	9.788830	0.999481	0.031204	-0.008055	-0.031241	0.999501	-0.004586	0.007908	0.004835	0.999957	
14110								0.074811	0.058512	9.788828	0.999481	0.031195	-0.008090	-0.031233	0.999502	-0.004592	0.007943	0.004843	0.999957	
14111								0.073466	0.066763	9.769784	0.999481	0.031197	-0.008087	-0.031235	0.999502	-0.004562	0.007940	0.004812	0.999957	
14112								0.079753	0.046353	9.794475	0.999480	0.031217	-0.008068	-0.031254	0.999501	-0.004546	0.007922	0.004796	0.999957	
14113								0.063806	0.056333	9.754597	0.999480	0.031214	-0.008073	-0.031252	0.999501	-0.004548	0.007928	0.004798	0.999957	
14114								0.068938	0.044309	9.760243	0.999480	0.031226	-0.008079	-0.031263	0.999501	-0.004567	0.007932	0.004817	0.999957	
14115								0.079120	0.047423	9.794475	0.999480	0.031226	-0.008070	-0.031263	0.999501	-0.004567	0.007923	0.004817	0.999957	
14116								0.076318	0.063774	9.756386	0.999479	0.031239	-0.008080	-0.031277	0.999500	-0.004556	0.007934	0.004806	0.999957	
14117								0.081557	0.051619	9.762033	0.999479	0.031233	-0.008101	-0.031271	0.999501	-0.004560	0.007954	0.004811	0.999957	
14118								0.064327	0.049821	9.773638	0.999479	0.031239	-0.008083	-0.031277	0.999501	-0.004526	0.007937	0.004777	0.999957	
14119								0.077382	0.028765	9.752496	0.999479	0.031233	-0.008103	-0.031271	0.999501	-0.004531	0.007957	0.004782	0.999957	
14120								0.093996	0.058660	9.763827	0.999478	0.031271	-0.008069	-0.031308	0.999500	-0.004530	0.007923	0.004780	0.999957	
14121								0.059623	0.055033	9.787034	0.999479	0.031250	-0.008087	-0.031287	0.999500	-0.004532	0.007941	0.004783	0.999957	
14122								0.077823	0.049286	9.794477	0.999479	0.031250	-0.008077	-0.031287	0.999500	-0.004532	0.007932	0.004782	0.999957	
14123								0.084148	0.076554	9.771569	0.999479	0.031258	-0.008097	-0.031296	0.999500	-0.004553	0.007951	0.004804	0.999957	
14124								0.067048	0.047472	9.760241	0.999478	0.031275	-0.008073	-0.031313	0.999499	-0.004568	0.007926	0.004818	0.999957	
14125								0.098195	0.048094	9.769479	0.999478	0.031273	-0.008081	-0.031311	0.999499	-0.004555	0.007935	0.004805	0.999957	
14126								0.062620	0.052368	9.773636	0.999478	0.031290	-0.008077	-0.031327	0.999499	-0.004541	0.007931	0.004792	0.999957	
14127								0.075594	0.059033	9.775427	0.999477	0.031315	-0.008103	-0.031352	0.999498	-0.004550	0.007956	0.004801	0.999957	
14128								0.075481	0.059614	9.775425	0.999477	0.031294	-0.008097	-0.031332	0.999498	-0.004595	0.007949	0.004846	0.999957	
14129								0.070183	0.045001	9.746844	0.999477	0.031306	-0.008105	-0.031344	0.999498	-0.004599	0.007957	0.004851	0.999957	
14130								0.078979	0.056078	9.762030	0.999478	0.031294	-0.008078	-0.031332	0.999498	-0.004595	0.007931	0.004845	0.999957	
14131								0.073316	0.068792	9.756375	0.999478	0.031294	-0.008069	-0.031332	0.999498	-0.004594	0.007921	0.004844	0.999957	
14132								0.092865	0.054971	9.782872	0.999477	0.031304	-0.008095	-0.031342	0.999498	-0.004585	0.007947	0.004837	0.999957	
14133								0.086292	0.075739	9.758164	0.999477	0.031298	-0.008115	-0.031336	0.999498	-0.004590	0.007968	0.004842	0.999957	
14134								0.078347	0.057326	9.762028	0.999478	0.031282	-0.008101	-0.031320	0.999499	-0.004603	0.007953	0.004854	0.999957	
14135								0.073967	0.062164	9.775420	0.999477	0.031300	-0.008076	-0.031337	0.999498	-0.004617	0.007928	0.004868	0.999957	
14136								0.073788	0.062646	9.775419	0.999478	0.031274	-0.008106	-0.031312	0.999499	-0.004638	0.007957	0.004889	0.999956	
14137								0.081687	0.054195	9.748634	0.999477	0.031291	-0.008102	-0.031329	0.999498	-0.004624	0.007953	0.004876	0.999956	
14138								0.077502	0.058841	9.762026	0.999478	0.031272	-0.008105	-0.031310	0.999499	-0.004624	0.007956	0.004876	0.999956	
14139								0.082513	0.046632	9.767687	0.999478	0.031277	-0.008084	-0.031315	0.999499	-0.004607	0.007936	0.004857	0.999957	
14140								0.076875	0.059280	9.762028	0.999478	0.031277	-0.008075	-0.031315	0.999499	-0.004606	0.007927	0.004857	0.999957	
14141								0.081776	0.047291	9.767690	0.999478	0.031278	-0.008045	-0.031316	0.999499	-0.004634	0.007896	0.004884	0.999957	
14142								0.077465	0.052145	9.781081	0.999478	0.031275	-0.008050	-0.031313	0.999499	-0.004636	0.007901	0.004886	0.999957	
14143								0.086467	0.035538	9.773354	0.999479	0.031264	-0.008026	-0.031302	0.999499	-0.004616	0.007878	0.004865	0.999957	
14144								0.075586	0.060700	9.762029	0.999479	0.031275	-0.008032	-0.031313	0.999499	-0.004636	0.007883	0.004885	0.999957	
14145								0.062325	0.054742	9.760235	0.999478	0.031306	-0.008027	-0.031344	0.999498	-0.004639	0.007878	0.004889	0.999957	
14146								0.072519	0.057857	9.794470	0.999477	0.031319	-0.008035	-0.031357	0.999497	-0.004644	0.007886	0.004893	0.999957	
14147								0.079072	0.057435	9.748637	0.999477	0.031331	-0.008043	-0.031369	0.999497	-0.004648	0.007893	0.004898	0.999957	
14148								0.074852	0.062326	9.762025	0.999476	0.031344	-0.008030	-0.031383	0.999496	-0.004680	0.007880	0.004929	0.999957	
14149								0.079858	0.050292	9.767691	0.999476	0.031346	-0.008024	-0.031384	0.999497	-0.004664	0.007874	0.004913	0.999957	
14150								0.066600	0.044149	9.765897	0.999476	0.031343	-0.008030	-0.031381	0.999497	-0.004666	0.007879	0.004916	0.999957	
14151								0.075515	0.055361	9.781078	0.999476	0.031355	-0.008035	-0.031393	0.999496	-0.004685	0.007884	0.004935	0.999957	
14152								0.079220	0.051264	9.767691	0.999477	0.031344	-0.008011	-0.031382	0.999497	-0.004665	0.007861	0.004914	0.999957	
14153								0.080178	0.043548	9.786748	0.999476	0.031374	-0.008004	-0.031412	0.999496	-0.004684	0.007853	0.004933	0.999957	
14154								0.073319	0.064245	9.762024	0.999476	0.031376	-0.008001	-0.031414	0.999496	-0.004653	0.007851	0.004902	0.999957	
14155								0.082064	0.075198	9.777207	0.999475	0.031395	-0.007979	-0.031432	0.999495	-0.004653	0.007829	0.004901	0.999957	
14156								0.083189	0.039847	9.773366	0.999475	0.031398	-0.007955	-0.031435	0.999495	-0.004650	0.007805	0.004897	0.999958	
14157								0.095908	0.046557	9.775163	0.999474	0.031429	-0.007950	-0.031467	0.999494	-0.004653	0.007800	0.004901	0.999958	
14158								0.081352	0.048522	9.754311	0.999474	0.031426	-0.007956	-0.031464	0.999494	-0.004655	0.007806	0.004903	0.999958	
14159								0.077304	0.053296	9.767695	0.999473	0.031451	-0.007982	-0.031489	0.999493	-0.004664	0.007831	0.004913	0.999957	
14160								0.099577	0.043080	9.761776	0.999473	0.031453	-0.007979	-0.031491	0.999493	-0.004633	0.007829	0.004882	0.999957	
14161								0.062582	0.055354	9.746843	0.999474	0.031453	-0.007966	-0.031490	0.999493	-0.004648	0.007816	0.004897	0.999957	
14162								0.080866	0.049766	9.754308	0.999473	0.031459	-0.008004	-0.031497	0.999493	-0.004657	0.007853	0.004907	0.999957	
14163								0.069017	0.035636	9.771572	0.999473	0.031479	-0.007985	-0.031517	0.999492	-0.004641	0.007835	0.004891	0.999957	
14164								0.101354	0.075600	9.752224	0.999473	0.031472	-0.008003	-0.031510	0.999493	-0.004661	0.007852	0.004911	0.999957	
14165								0.085761	0.038458	9.759981	0.999473	0.031468	-0.008005	-0.031506	0.999493	-0.004679	0.007854	0.004929	0.999957	
14166								0.077597	0.047679	9.786750	0.999473	0.031465	-0.008011	-0.031503	0.999493	-0.004681	0.007860	0.004931	0.999957	
14167								0.063120	0.049558	9.765895	0.999472	0.031478	-0.008022	-0.031516	0.999492	-0.004671	0.007871	0.004921	0.999957	
14168								0.062921	0.049984	9.765894	0.999471	0.031507	-0.008012	-0.031545	0.999491	-0.004705	0.007860	0.004955	0.999957	
14169								0.092920	0.058882	9.756097	0.999472	0.031467	-0.008042	-0.031506	0.999492	-0.004707	0.007890	0.004958	0.999957	
14170								0.088861	0.063564	9.769480	0.999471	0.031499	-0.008041	-0.031537	0.999492	-0.004696	0.007889	0.004947	0.999957	
14171								0.084850	0.040654	9.759980	0.999472	0.031483	-0.008026	-0.031522	0.999492	-0.004709	0.007874	0.004959	0.999957	
14172								0.075354	0.057957	9.767684	0.999472	0.031492	-0.008046	-0.031530	0.999492	-0.004731	0.007893	0.004982	0.999956	
14173								0.080457	0.045961	9.773362	0.999471	0.031511	-0.008025	-0.031549	0.999491	-0.004730	0.007872	0.004980	0.999957	
14174								0.070982	0.063105	9.781065	0.999472	0.031471	-0.008055	-0.031510	0.999492	-0.004732	0.007902	0.004983	0.999956	
14175								0.066792	0.067718	9.794448	0.999474	0.031430	-0.008026	-0.031468	0.999494	-0.004708	0.007874	0.004958	0.999957	
14176								0.105870	0.059738	9.776953	0.999473	0.031439	-0.008025	-0.031478	0.999493	-0.004757	0.007871	0.005008	0.999956	
14177								0.070110	0.064269	9.781064	0.999474	0.031427	-0.007999	-0.031466	0.999494	-0.004752	0.007845	0.005002	0.999957	
14178								0.100136	0.045331	9.748397	0.999474	0.031443	-0.007992	-0.031482	0.999493	-0.004754	0.007838	0.005003	0.999957	
14179								0.077559	0.056072	9.754301	0.999474	0.031440	-0.007997	-0.031478	0.999493	-0.004756	0.007843	0.005006	0.999957	
14180								0.090468	0.062733	9.756096	0.999474	0.031423	-0.008003	-0.031461	0.999494	-0.004741	0.007850	0.004990	0.999957	
14181								0.069264	0.065391	9.781063	0.999474	0.031420	-0.008009	-0.031459	0.999494	-0.004743	0.007856	0.004992	0.999957	
14182								0.084766	0.075775	9.750411	0.999475	0.031404	-0.007994	-0.031443	0.999494	-0.004755	0.007841	0.005004	0.999957	
14183								0.079471	0.041129	9.792430	0.999474	0.031420	-0.008011	-0.031458	0.999494	-0.004714	0.007859	0.004964	0.999957	
14184								0.076600	0.057284	9.754302	0.999475	0.031406	-0.007982	-0.031445	0.999494	-0.004725	0.007829	0.004973	0.999957	
14185								0.069637	0.058363	9.800128	0.999473	0.031452	-0.008001	-0.031490	0.999493	-0.004703	0.007849	0.004952	0.999957	
14186								0.081523	0.045337	9.759987	0.999473	0.031452	-0.007992	-0.031490	0.999493	-0.004702	0.007840	0.004951	0.999957	
14187								0.094424	0.052088	9.761783	0.999473	0.031446	-0.008012	-0.031485	0.999493	-0.004707	0.007860	0.004956	0.999957	
14188								0.078531	0.042422	9.792433	0.999473	0.031446	-0.008003	-0.031485	0.999493	-0.004706	0.007851	0.004956	0.999957	
14189								0.062558	0.052458	9.752504	0.999473	0.031460	-0.007990	-0.031499	0.999493	-0.004738	0.007837	0.004987	0.999957	
14190								0.095005	0.045128	9.780851	0.999473	0.031449	-0.007987	-0.031487	0.999493	-0.004690	0.007836	0.004939	0.999957	
14191								0.085385	0.062168	9.788544	0.999474	0.031447	-0.007972	-0.031485	0.999493	-0.004720	0.007820	0.004969	0.999957	
14192								0.088955	0.058205	9.775166	0.999473	0.031484	-0.007938	-0.031522	0.999492	-0.004720	0.007785	0.004967	0.999957	
14193								0.074421	0.060130	9.754301	0.999472	0.031490	-0.007976	-0.031528	0.999492	-0.004729	0.007823	0.004978	0.999957	
14194								0.075662	0.052584	9.773367	0.999480	0.031228	-0.007978	-0.031266	0.999500	-0.004705	0.007827	0.004952	0.999957	
14195								0.092599	0.054951	9.761785	0.999480	0.031242	-0.008004	-0.031280	0.999500	-0.004697	0.007853	0.004945	0.999957	
14196								0.067637	0.034371	9.777261	0.999480	0.031242	-0.007980	-0.031280	0.999500	-0.004694	0.007829	0.004941	0.999957	
14197								0.084041	0.064480	9.788540	0.999481	0.031216	-0.007977	-0.031254	0.999500	-0.004724	0.007825	0.004971	0.999957	
14198								0.074894	0.054211	9.773364	0.999480	0.031222	-0.007997	-0.031261	0.999500	-0.004746	0.007844	0.004993	0.999957	
14199								0.074712	0.054384	9.773365	0.999481	0.031210	-0.007979	-0.031248	0.999501	-0.004696	0.007828	0.004943	0.999957	
14200								0.087641	0.060998	9.775161	0.999481	0.031215	-0.008014	-0.031254	0.999500	-0.004720	0.007862	0.004968	0.999957	
14201								0.091371	0.056890	9.761785	0.999481	0.031206	-0.007960	-0.031244	0.999501	-0.004695	0.007810	0.004941	0.999957	
14202								0.077905	0.050655	9.759991	0.999481	0.031206	-0.007966	-0.031244	0.999501	-0.004697	0.007815	0.004943	0.999957	
14203								0.066114	0.036601	9.777263	0.999481	0.031218	-0.007989	-0.031256	0.999500	-0.004704	0.007838	0.004951	0.999957	
14204								0.060724	0.049360	9.771567	0.999481	0.031215	-0.007995	-0.031253	0.999500	-0.004706	0.007844	0.004953	0.999957	
14205								0.083058	0.039250	9.765682	0.999481	0.031212	-0.008018	-0.031251	0.999501	-0.004695	0.007868	0.004943	0.999957	
14206								0.073507	0.056311	9.773363	0.999481	0.031213	-0.007994	-0.031251	0.999501	-0.004692	0.007844	0.004939	0.999957	
14207								0.067915	0.068953	9.767667	0.999480	0.031223	-0.008005	-0.031262	0.999500	-0.004681	0.007855	0.004929	0.999957	
14208								0.099189	0.069554	9.776958	0.999479	0.031256	-0.008007	-0.031294	0.999499	-0.004655	0.007858	0.004903	0.999957	
14209								0.072883	0.056869	9.773364	0.999479	0.031258	-0.007998	-0.031296	0.999499	-0.004654	0.007848	0.004902	0.999957	
14210								0.063598	0.046251	9.758193	0.999479	0.031260	-0.007992	-0.031298	0.999499	-0.004638	0.007843	0.004886	0.999957	
14211								0.080113	0.076180	9.769465	0.999479	0.031255	-0.007997	-0.031293	0.999499	-0.004640	0.007848	0.004888	0.999957	
14212								0.077629	0.045224	9.779062	0.999479	0.031272	-0.008009	-0.031310	0.999499	-0.004629	0.007860	0.004877	0.999957	
14213								0.066754	0.070347	9.767665	0.999479	0.031271	-0.007997	-0.031309	0.999499	-0.004644	0.007847	0.004892	0.999957	
14214								0.081193	0.041512	9.765689	0.999480	0.031234	-0.007997	-0.031272	0.999500	-0.004642	0.007848	0.004890	0.999957	
14215								0.079458	0.077504	9.769460	0.999479	0.031256	-0.008022	-0.031294	0.999499	-0.004651	0.007873	0.004899	0.999957	
14216								0.073025	0.050981	9.792434	0.999480	0.031237	-0.008028	-0.031275	0.999500	-0.004635	0.007879	0.004884	0.999957	
14217								0.079552	0.050262	9.746614	0.999481	0.031207	-0.008017	-0.031245	0.999501	-0.004615	0.007869	0.004863	0.999957	
14218								0.075292	0.054892	9.759988	0.999482	0.031183	-0.008019	-0.031221	0.999502	-0.004615	0.007871	0.004863	0.999957	
14219								0.065998	0.044340	9.744818	0.999481	0.031202	-0.007998	-0.031240	0.999501	-0.004615	0.007850	0.004862	0.999957	
14220								0.062956	0.041236	9.777265	0.999482	0.031185	-0.007995	-0.031223	0.999502	-0.004645	0.007846	0.004892	0.999957	
14221								0.087566	0.062639	9.761785	0.999482	0.031163	-0.008010	-0.031201	0.999502	-0.004663	0.007860	0.004910	0.999957	
14222								0.075554	0.048531	9.779063	0.999482	0.031188	-0.007977	-0.031225	0.999502	-0.004644	0.007828	0.004891	0.999957	
14223								0.079179	0.044328	9.765693	0.999482	0.031188	-0.007967	-0.031225	0.999502	-0.004644	0.007819	0.004891	0.999957	
14224								0.070763	0.053373	9.792438	0.999482	0.031177	-0.007944	-0.031215	0.999502	-0.004624	0.007796	0.004870	0.999958	
14225								0.077217	0.052801	9.746620	0.999482	0.031175	-0.007947	-0.031212	0.999502	-0.004641	0.007798	0.004887	0.999958	
14226								0.074343	0.049669	9.779066	0.999482	0.031187	-0.007955	-0.031225	0.999502	-0.004646	0.007806	0.004892	0.999958	
14227								0.092466	0.043981	9.786572	0.999481	0.031210	-0.007936	-0.031247	0.999501	-0.004629	0.007788	0.004875	0.999958	
14228								0.080658	0.049397	9.733248	0.999481	0.031219	-0.007956	-0.031256	0.999501	-0.004651	0.007807	0.004897	0.999958	
14229								0.072591	0.058599	9.759987	0.999481	0.031199	-0.007977	-0.031237	0.999501	-0.004638	0.007829	0.004885	0.999957	
14230								0.090853	0.052846	9.767493	0.999481	0.031219	-0.007974	-0.031256	0.999501	-0.004625	0.007825	0.004871	0.999958	
14231								0.064230	0.067799	9.786728	0.999481	0.031203	-0.007980	-0.031240	0.999501	-0.004610	0.007833	0.004857	0.999958	
14232								0.077474	0.046883	9.765695	0.999482	0.031179	-0.007980	-0.031216	0.999502	-0.004625	0.007832	0.004872	0.999957	
14233								0.073234	0.051635	9.779065	0.999481	0.031210	-0.007979	-0.031248	0.999501	-0.004614	0.007831	0.004861	0.999958	
14234								0.090060	0.053932	9.767495	0.999481	0.031226	-0.007972	-0.031264	0.999501	-0.004616	0.007824	0.004863	0.999958	
14235								0.085718	0.058734	9.780865	0.999481	0.031208	-0.007957	-0.031246	0.999501	-0.004629	0.007808	0.004875	0.999958	
14236								0.073693	0.044698	9.798145	0.999481	0.031221	-0.007950	-0.031258	0.999501	-0.004630	0.007801	0.004876	0.999958	
14237								0.070737	0.060940	9.759987	0.999481	0.031237	-0.007928	-0.031274	0.999500	-0.004629	0.007779	0.004875	0.999958	
14238								0.075806	0.048873	9.765698	0.999481	0.031233	-0.007933	-0.031270	0.999500	-0.004631	0.007785	0.004877	0.999958	
14239								0.079795	0.044822	9.752328	0.999480	0.031256	-0.007959	-0.031294	0.999499	-0.004640	0.007810	0.004887	0.999958	
14240								0.088795	0.055862	9.767495	0.999479	0.031270	-0.007976	-0.031307	0.999499	-0.004599	0.007828	0.004846	0.999958	
14241								0.066188	0.066372	9.773352	0.999480	0.031236	-0.007958	-0.031273	0.999500	-0.004610	0.007810	0.004856	0.999958	
14242								0.092301	0.051948	9.754130	0.999481	0.031222	-0.007947	-0.031259	0.999501	-0.004607	0.007799	0.004853	0.999958	
14243								0.065590	0.067089	9.773351	0.999481	0.031206	-0.007947	-0.031243	0.999501	-0.004622	0.007799	0.004868	0.999958	
14244								0.074646	0.050727	9.765697	0.999482	0.031208	-0.007920	-0.031245	0.999501	-0.004634	0.007772	0.004879	0.999958	
14245								0.092731	0.045110	9.773214	0.999481	0.031207	-0.007929	-0.031245	0.999501	-0.004621	0.007781	0.004867	0.999958	
14246								0.074253	0.051316	9.765697	0.999480	0.031236	-0.007940	-0.031274	0.999500	-0.004628	0.007791	0.004873	0.999958	
14247								0.068751	0.064116	9.759980	0.999481	0.031216	-0.007940	-0.031253	0.999501	-0.004643	0.007791	0.004889	0.999958	
14248								0.091067	0.054183	9.754129	0.999481	0.031209	-0.007960	-0.031246	0.999501	-0.004647	0.007811	0.004894	0.999958	
14249								0.072482	0.060337	9.746612	0.999482	0.031197	-0.007936	-0.031235	0.999501	-0.004627	0.007788	0.004872	0.999958	
14250								0.069368	0.057172	9.779062	0.999481	0.031210	-0.007923	-0.031247	0.999501	-0.004659	0.007774	0.004904	0.999958	
14251								0.110011	0.041336	9.780733	0.999481	0.031204	-0.007947	-0.031242	0.999501	-0.004648	0.007798	0.004894	0.999958	
14252								0.073146	0.053439	9.765694	0.999481	0.031222	-0.007941	-0.031260	0.999500	-0.004649	0.007791	0.004895	0.999958	
14253								0.087354	0.052308	9.786578	0.999480	0.031232	-0.007964	-0.031269	0.999500	-0.004656	0.007815	0.004903	0.999957	
14254								0.072963	0.054156	9.765692	0.999480	0.031230	-0.007970	-0.031267	0.999500	-0.004659	0.007820	0.004905	0.999957	
14255								0.091044	0.048637	9.773213	0.999480	0.031248	-0.007946	-0.031285	0.999500	-0.004673	0.007796	0.004919	0.999958	
14256								0.068442	0.059455	9.779055	0.999481	0.031223	-0.007975	-0.031261	0.999500	-0.004693	0.007825	0.004940	0.999957	
14257								0.072376	0.055428	9.765689	0.999481	0.031206	-0.007963	-0.031244	0.999501	-0.004691	0.007813	0.004937	0.999957	
14258								0.080964	0.066592	9.780855	0.999482	0.031195	-0.007937	-0.031233	0.999501	-0.004686	0.007787	0.004931	0.999958	
14259								0.086109	0.054453	9.786577	0.999482	0.031189	-0.007960	-0.031227	0.999501	-0.004675	0.007811	0.004921	0.999957	
14260								0.094062	0.045934	9.759850	0.999482	0.031188	-0.007948	-0.031226	0.999501	-0.004689	0.007798	0.004935	0.999957	
14261								0.071374	0.056723	9.765689	0.999483	0.031169	-0.007948	-0.031207	0.999502	-0.004705	0.007798	0.004950	0.999957	
14262								0.081851	0.032273	9.777137	0.999483	0.031154	-0.007940	-0.031192	0.999502	-0.004687	0.007790	0.004932	0.999957	
14263								0.083892	0.063735	9.767491	0.999482	0.031184	-0.007935	-0.031222	0.999501	-0.004691	0.007785	0.004936	0.999958	
14264								0.087642	0.059783	9.754128	0.999482	0.031182	-0.007920	-0.031220	0.999501	-0.004721	0.007769	0.004966	0.999957	
14265								0.083295	0.064604	9.767490	0.999482	0.031198	-0.007916	-0.031236	0.999501	-0.004707	0.007765	0.004952	0.999958	
14266								0.079319	0.041611	9.758054	0.999483	0.031168	-0.007884	-0.031206	0.999502	-0.004715	0.007733	0.004959	0.999958	
14267								0.074866	0.046383	9.771418	0.999483	0.031169	-0.007874	-0.031206	0.999502	-0.004714	0.007724	0.004958	0.999958	
14268								0.082183	0.065362	9.767494	0.999484	0.031160	-0.007854	-0.031197	0.999502	-0.004678	0.007704	0.004921	0.999958	
14269								0.083744	0.029963	9.763787	0.999483	0.031167	-0.007874	-0.031205	0.999502	-0.004700	0.007724	0.004943	0.999958	
14270								0.066040	0.056106	9.798141	0.999484	0.031150	-0.007859	-0.031188	0.999502	-0.004713	0.007709	0.004956	0.999958	
14271								0.086812	0.054238	9.773222	0.999484	0.031150	-0.007844	-0.031188	0.999502	-0.004743	0.007693	0.004985	0.999958	
14272								0.085217	0.062483	9.754132	0.999484	0.031153	-0.007841	-0.031190	0.999502	-0.004712	0.007691	0.004954	0.999958	
14273								0.076005	0.051734	9.738971	0.999484	0.031152	-0.007832	-0.031189	0.999502	-0.004712	0.007681	0.004954	0.999958	
14274								0.086052	0.055026	9.773224	0.999484	0.031148	-0.007837	-0.031185	0.999503	-0.004714	0.007686	0.004956	0.999958	
14275								0.076796	0.044411	9.758062	0.999485	0.031135	-0.007810	-0.031173	0.999503	-0.004709	0.007660	0.004950	0.999958	
14276								0.068458	0.053498	9.784781	0.999485	0.031116	-0.007832	-0.031153	0.999504	-0.004696	0.007682	0.004938	0.999958	
14277								0.080158	0.068180	9.767492	0.999486	0.031094	-0.007849	-0.031131	0.999504	-0.004699	0.007699	0.004941	0.999958	
14278								0.089442	0.051813	9.759864	0.999484	0.031139	-0.007845	-0.031177	0.999503	-0.004721	0.007694	0.004963	0.999958	
14279								0.080362	0.041342	9.744701	0.999484	0.031132	-0.007865	-0.031170	0.999503	-0.004726	0.007714	0.004969	0.999958	
14280								0.066666	0.062807	9.765685	0.999485	0.031122	-0.007842	-0.031160	0.999503	-0.004706	0.007692	0.004948	0.999958	
14281								0.084649	0.057183	9.773224	0.999486	0.031091	-0.007825	-0.031128	0.999504	-0.004717	0.007674	0.004958	0.999958	
14282								0.088357	0.053266	9.759866	0.999486	0.031104	-0.007812	-0.031142	0.999504	-0.004749	0.007660	0.004989	0.999958	
14283								0.065589	0.064119	9.765684	0.999486	0.031103	-0.007800	-0.031141	0.999504	-0.004763	0.007648	0.005003	0.999958	
14284								0.091773	0.049740	9.746510	0.999486	0.031089	-0.007788	-0.031127	0.999504	-0.004760	0.007637	0.005000	0.999958	
14285								0.085353	0.023300	9.769536	0.999486	0.031081	-0.007824	-0.031119	0.999504	-0.004768	0.007672	0.005009	0.999958	
14286								0.078051	0.071644	9.767484	0.999486	0.031084	-0.007800	-0.031122	0.999504	-0.004765	0.007648	0.005005	0.999958	
14287								0.079481	0.036290	9.763801	0.999486	0.031083	-0.007791	-0.031121	0.999504	-0.004765	0.007639	0.005005	0.999958	
14288								0.069826	0.053493	9.771419	0.999486	0.031094	-0.007796	-0.031132	0.999504	-0.004784	0.007643	0.005024	0.999958	
14289								0.092981	0.082789	9.736835	0.999487	0.031077	-0.007781	-0.031114	0.999504	-0.004797	0.007628	0.005036	0.999958	
14290								0.073322	0.049893	9.758062	0.999487	0.031077	-0.007771	-0.031115	0.999504	-0.004797	0.007619	0.005036	0.999958	
14291								0.088723	0.040855	9.798059	0.999487	0.031074	-0.007777	-0.031112	0.999504	-0.004799	0.007624	0.005038	0.999958	
14292								0.068751	0.054956	9.771418	0.999487	0.031076	-0.007753	-0.031113	0.999504	-0.004797	0.007600	0.005035	0.999958	
14293								0.072546	0.050933	9.758063	0.999486	0.031118	-0.007763	-0.031156	0.999503	-0.004820	0.007609	0.005060	0.999958	
14294								0.086721	0.049722	9.778964	0.999485	0.031137	-0.007766	-0.031175	0.999503	-0.004776	0.007613	0.005016	0.999958	
14295								0.094316	0.068776	9.775025	0.999485	0.031112	-0.007796	-0.031150	0.999503	-0.004796	0.007642	0.005037	0.999958	
14296								0.068058	0.056172	9.771416	0.999486	0.031117	-0.007756	-0.031155	0.999503	-0.004791	0.007604	0.005031	0.999958	
14297								0.093652	0.069366	9.775028	0.999486	0.031119	-0.007751	-0.031157	0.999503	-0.004775	0.007598	0.005014	0.999959	
14298								0.089868	0.046483	9.765612	0.999485	0.031128	-0.007752	-0.031166	0.999503	-0.004810	0.007599	0.005049	0.999958	
14299								0.080200	0.063683	9.773221	0.999485	0.031130	-0.007746	-0.031168	0.999503	-0.004794	0.007593	0.005033	0.999959	
14300								0.080465	0.036029	9.750456	0.999486	0.031116	-0.007740	-0.031153	0.999503	-0.004762	0.007588	0.005000	0.999959	
14301								0.068099	0.049271	9.790517	0.999486	0.031101	-0.007752	-0.031138	0.999504	-0.004716	0.007602	0.004955	0.999959	
14302								0.066689	0.057292	9.771419	0.999486	0.031097	-0.007758	-0.031135	0.999504	-0.004718	0.007607	0.004957	0.999959	
14303								0.092545	0.070709	9.775029	0.999486	0.031109	-0.007763	-0.031146	0.999504	-0.004738	0.007611	0.004977	0.999959	
14304								0.088869	0.047776	9.765615	0.999485	0.031122	-0.007774	-0.031159	0.999503	-0.004727	0.007623	0.004966	0.999959	
14305								0.087419	0.056027	9.746515	0.999486	0.031102	-0.007774	-0.031140	0.999504	-0.004742	0.007623	0.004982	0.999959	
14306								0.088623	0.048523	9.765614	0.999486	0.031095	-0.007794	-0.031133	0.999504	-0.004747	0.007643	0.004987	0.999958	
14307								0.092659	0.044286	9.752261	0.999486	0.031093	-0.007806	-0.031131	0.999504	-0.004718	0.007655	0.004959	0.999958	
14308								0.066009	0.059191	9.771412	0.999487	0.031076	-0.007809	-0.031113	0.999505	-0.004718	0.007659	0.004958	0.999958	
14309								0.088253	0.049138	9.765614	0.999487	0.031077	-0.007803	-0.031114	0.999505	-0.004702	0.007653	0.004943	0.999958	
14310								0.083835	0.053796	9.778968	0.999487	0.031079	-0.007779	-0.031116	0.999505	-0.004699	0.007629	0.004939	0.999959	
14311								0.074592	0.043222	9.763811	0.999487	0.031060	-0.007779	-0.031097	0.999505	-0.004714	0.007629	0.004954	0.999959	
14312								0.077991	0.066852	9.773218	0.999487	0.031074	-0.007790	-0.031112	0.999505	-0.004703	0.007640	0.004943	0.999959	
14313								0.083328	0.054788	9.778967	0.999487	0.031069	-0.007810	-0.031106	0.999505	-0.004707	0.007660	0.004948	0.999958	
14314								0.068826	0.056568	9.758059	0.999483	0.031173	-0.007922	-0.031211	0.999502	-0.004728	0.007770	0.004973	0.999957	
14315								0.078669	0.059873	9.792318	0.999482	0.031194	-0.007903	-0.031231	0.999501	-0.004712	0.007753	0.004957	0.999958	
14316								0.086509	0.051150	9.765619	0.999482	0.031193	-0.007898	-0.031231	0.999501	-0.004697	0.007747	0.004941	0.999958	
14317								0.076938	0.068127	9.773217	0.999482	0.031185	-0.007922	-0.031223	0.999501	-0.004686	0.007772	0.004931	0.999958	
14318								0.077303	0.040659	9.750463	0.999481	0.031221	-0.007903	-0.031258	0.999500	-0.004687	0.007753	0.004932	0.999958	
14319								0.081814	0.056589	9.778969	0.999482	0.031200	-0.007898	-0.031238	0.999501	-0.004733	0.007746	0.004977	0.999958	
14320								0.080294	0.065125	9.759864	0.999482	0.031213	-0.007903	-0.031251	0.999500	-0.004752	0.007751	0.004996	0.999957	
14321								0.085445	0.053172	9.765618	0.999482	0.031198	-0.007891	-0.031236	0.999501	-0.004750	0.007739	0.004994	0.999958	
14322								0.076965	0.062426	9.792316	0.999482	0.031199	-0.007879	-0.031237	0.999501	-0.004764	0.007727	0.005008	0.999958	
14323								0.070521	0.055313	9.744708	0.999482	0.031198	-0.007871	-0.031236	0.999501	-0.004764	0.007718	0.005007	0.999958	
14324								0.084604	0.054243	9.765619	0.999482	0.031199	-0.007877	-0.031237	0.999501	-0.004765	0.007724	0.005009	0.999958	
14325								0.071343	0.048059	9.763813	0.999481	0.031230	-0.007858	-0.031268	0.999500	-0.004767	0.007705	0.005010	0.999958	
14326								0.079945	0.059269	9.778969	0.999481	0.031245	-0.007855	-0.031283	0.999499	-0.004754	0.007702	0.004997	0.999958	
14327								0.085261	0.047275	9.784725	0.999481	0.031221	-0.007884	-0.031259	0.999500	-0.004774	0.007731	0.005018	0.999958	
14328								0.096828	0.062050	9.767426	0.999480	0.031269	-0.007871	-0.031307	0.999498	-0.004763	0.007718	0.005007	0.999958	
14329								0.079561	0.060237	9.778966	0.999481	0.031232	-0.007887	-0.031270	0.999500	-0.004763	0.007734	0.005007	0.999958	
14330								0.052066	0.055560	9.756244	0.999481	0.031232	-0.007871	-0.031270	0.999499	-0.004793	0.007717	0.005037	0.999958	
14331								0.075500	0.037919	9.769571	0.999481	0.031229	-0.007859	-0.031268	0.999499	-0.004808	0.007705	0.005051	0.999958	
14332								0.088181	0.044904	9.771379	0.999481	0.031244	-0.007850	-0.031282	0.999499	-0.004825	0.007695	0.005068	0.999958	
14333								0.086666	0.053218	9.752271	0.999481	0.031256	-0.007858	-0.031295	0.999499	-0.004830	0.007703	0.005073	0.999957	
14334								0.076952	0.070399	9.759854	0.999481	0.031238	-0.007843	-0.031276	0.999499	-0.004843	0.007688	0.005085	0.999958	
14335								0.087318	0.046134	9.771381	0.999482	0.031228	-0.007814	-0.031266	0.999499	-0.004852	0.007658	0.005094	0.999958	
14336								0.087107	0.046371	9.771382	0.999482	0.031224	-0.007841	-0.031262	0.999500	-0.004826	0.007686	0.005069	0.999958	
14337								0.064495	0.056885	9.777155	0.999482	0.031206	-0.007827	-0.031244	0.999500	-0.004839	0.007672	0.005081	0.999958	
14338								0.077257	0.063717	9.778962	0.999482	0.031205	-0.007836	-0.031243	0.999500	-0.004826	0.007682	0.005068	0.999958	
14339								0.073622	0.040669	9.769575	0.999482	0.031203	-0.007842	-0.031242	0.999500	-0.004827	0.007687	0.005070	0.999958	
14340								0.095289	0.058571	9.786534	0.999482	0.031216	-0.007833	-0.031254	0.999500	-0.004845	0.007678	0.005087	0.999958	
14341								0.080712	0.060341	9.765617	0.999482	0.031231	-0.007826	-0.031270	0.999499	-0.004846	0.007671	0.005088	0.999958	
14342								0.081744	0.052685	9.784728	0.999482	0.031218	-0.007818	-0.031257	0.999500	-0.004828	0.007663	0.005070	0.999958	
14343								0.089789	0.044040	9.758041	0.999482	0.031213	-0.007839	-0.031251	0.999500	-0.004833	0.007684	0.005075	0.999958	
14344								0.080221	0.061259	9.765615	0.999482	0.031226	-0.007843	-0.031265	0.999499	-0.004852	0.007688	0.005095	0.999957	
14345								0.067051	0.054904	9.763807	0.999482	0.031215	-0.007841	-0.031253	0.999500	-0.004804	0.007687	0.005047	0.999958	
14346								0.103556	0.043438	9.778962	0.999482	0.031212	-0.007828	-0.031251	0.999500	-0.004820	0.007674	0.005062	0.999958	
14347								0.084847	0.049699	9.771386	0.999482	0.031212	-0.007816	-0.031250	0.999500	-0.004834	0.007661	0.005076	0.999958	
14348								0.084558	0.050006	9.771387	0.999482	0.031212	-0.007810	-0.031251	0.999500	-0.004819	0.007656	0.005061	0.999958	
14349								0.064514	0.063902	9.744697	0.999483	0.031199	-0.007784	-0.031237	0.999500	-0.004814	0.007630	0.005055	0.999958	
14350								0.088120	0.046065	9.758047	0.999484	0.031159	-0.007815	-0.031198	0.999502	-0.004817	0.007661	0.005058	0.999958	
14351								0.070965	0.044333	9.769578	0.999483	0.031191	-0.007811	-0.031229	0.999501	-0.004821	0.007657	0.005062	0.999958	
14352								0.076100	0.032329	9.775351	0.999483	0.031189	-0.007803	-0.031228	0.999501	-0.004821	0.007648	0.005062	0.999958	
14353								0.087468	0.046902	9.758049	0.999483	0.031208	-0.007788	-0.031246	0.999500	-0.004790	0.007635	0.005031	0.999958	
14354								0.070125	0.045062	9.769581	0.999483	0.031207	-0.007790	-0.031245	0.999500	-0.004807	0.007636	0.005048	0.999958	
14355								0.095915	0.058615	9.773199	0.999483	0.031203	-0.007793	-0.031242	0.999500	-0.004824	0.007639	0.005065	0.999958	
14356								0.088116	0.040070	9.777164	0.999483	0.031204	-0.007788	-0.031242	0.999500	-0.004808	0.007634	0.005049	0.999958	
14357								0.099577	0.054681	9.759860	0.999481	0.031251	-0.007789	-0.031289	0.999499	-0.004799	0.007636	0.005040	0.999958	
14358								0.068108	0.054319	9.750465	0.999481	0.031260	-0.007810	-0.031298	0.999498	-0.004821	0.007655	0.005062	0.999958	
14359								0.076917	0.065656	9.765613	0.999481	0.031242	-0.007816	-0.031280	0.999499	-0.004806	0.007662	0.005048	0.999958	
14360								0.087449	0.041134	9.777165	0.999482	0.031233	-0.007793	-0.031271	0.999500	-0.004785	0.007639	0.005026	0.999958	
14361								0.096018	0.052409	9.792316	0.999482	0.031213	-0.007793	-0.031251	0.999500	-0.004800	0.007639	0.005041	0.999958	
14362								0.085577	0.049667	9.758052	0.999483	0.031197	-0.007782	-0.031235	0.999501	-0.004798	0.007628	0.005039	0.999958	
14363								0.081096	0.054485	9.771392	0.999483	0.031216	-0.007757	-0.031254	0.999500	-0.004813	0.007603	0.005052	0.999958	
14364								0.090167	0.038069	9.763833	0.999483	0.031219	-0.007733	-0.031256	0.999500	-0.004810	0.007579	0.005049	0.999959	
14365								0.080428	0.055159	9.771394	0.999483	0.031197	-0.007752	-0.031235	0.999500	-0.004812	0.007598	0.005052	0.999958	
14366								0.071402	0.044402	9.756245	0.999484	0.031185	-0.007743	-0.031222	0.999501	-0.004794	0.007590	0.005033	0.999959	
14367								0.085324	0.043364	9.777174	0.999483	0.031202	-0.007719	-0.031240	0.999500	-0.004809	0.007565	0.005047	0.999959	
14368								0.079751	0.055972	9.771395	0.999482	0.031229	-0.007751	-0.031266	0.999500	-0.004787	0.007597	0.005027	0.999959	
14369								0.074292	0.068670	9.765612	0.999482	0.031224	-0.007750	-0.031262	0.999500	-0.004820	0.007596	0.005059	0.999958	
14370								0.075903	0.033464	9.762026	0.999483	0.031212	-0.007724	-0.031249	0.999500	-0.004815	0.007570	0.005054	0.999959	
14371								0.087924	0.068071	9.786542	0.999483	0.031194	-0.007727	-0.031232	0.999501	-0.004814	0.007573	0.005053	0.999959	
14372								0.078919	0.057418	9.771393	0.999483	0.031223	-0.007738	-0.031260	0.999500	-0.004821	0.007583	0.005060	0.999958	
14373								0.081603	0.061192	9.738936	0.999483	0.031219	-0.007744	-0.031257	0.999500	-0.004823	0.007590	0.005062	0.999958	
14374								0.070941	0.039213	9.775364	0.999483	0.031221	-0.007721	-0.031258	0.999500	-0.004820	0.007566	0.005059	0.999959	
14375								0.083725	0.046106	9.777176	0.999482	0.031244	-0.007747	-0.031282	0.999499	-0.004829	0.007592	0.005069	0.999958	
14376								0.074803	0.035559	9.762027	0.999481	0.031257	-0.007752	-0.031295	0.999498	-0.004849	0.007596	0.005089	0.999958	
14377								0.096464	0.053290	9.778986	0.999482	0.031245	-0.007749	-0.031283	0.999499	-0.004801	0.007595	0.005040	0.999958	
14378								0.082092	0.054720	9.758055	0.999481	0.031253	-0.007773	-0.031291	0.999499	-0.004808	0.007619	0.005048	0.999958	
14379								0.070275	0.040637	9.775363	0.999482	0.031239	-0.007762	-0.031277	0.999499	-0.004805	0.007608	0.005045	0.999958	
14380								0.090582	0.066373	9.773200	0.999482	0.031237	-0.007767	-0.031275	0.999499	-0.004806	0.007613	0.005047	0.999958	
14381								0.081574	0.055699	9.758053	0.999482	0.031235	-0.007773	-0.031273	0.999499	-0.004808	0.007619	0.005049	0.999958	
14382								0.081507	0.055964	9.758052	0.999482	0.031215	-0.007795	-0.031253	0.999500	-0.004795	0.007641	0.005036	0.999958	
14384								0.083934	0.050178	9.760946	0.999480	0.031296	-0.007777	-0.031334	0.999498	-0.004787	0.007624	0.005029	0.999958	
14385								0.095230	0.055629	9.778985	0.999481	0.031253	-0.007802	-0.031292	0.999499	-0.004821	0.007647	0.005063	0.999958	
14386								0.059549	0.059749	9.782907	0.999481	0.031256	-0.007778	-0.031294	0.999499	-0.004818	0.007624	0.005059	0.999958	
14387								0.081054	0.029884	9.735363	0.999482	0.031242	-0.007767	-0.031280	0.999499	-0.004815	0.007612	0.005056	0.999958	
14388								0.088934	0.068984	9.773197	0.999482	0.031242	-0.007757	-0.031280	0.999499	-0.004815	0.007603	0.005055	0.999958	
14389								0.075713	0.062682	9.771386	0.999481	0.031274	-0.007757	-0.031312	0.999498	-0.004804	0.007603	0.005045	0.999958	
14390								0.085072	0.046180	9.763844	0.999481	0.031271	-0.007763	-0.031309	0.999498	-0.004806	0.007608	0.005047	0.999958	
14391								0.076621	0.055416	9.790509	0.999481	0.031273	-0.007753	-0.031310	0.999498	-0.004805	0.007599	0.005046	0.999958	
14392								0.075028	0.063580	9.771385	0.999481	0.031273	-0.007745	-0.031311	0.999498	-0.004805	0.007591	0.005045	0.999958	
14393								0.078785	0.059414	9.758054	0.999481	0.031276	-0.007721	-0.031314	0.999498	-0.004802	0.007567	0.005041	0.999959	
14394								0.092797	0.058367	9.778992	0.999480	0.031290	-0.007733	-0.031328	0.999498	-0.004791	0.007579	0.005031	0.999959	
14395								0.082522	0.055559	9.744722	0.999480	0.031301	-0.007738	-0.031339	0.999497	-0.004810	0.007584	0.005050	0.999958	
14396								0.078269	0.060364	9.758053	0.999480	0.031299	-0.007747	-0.031337	0.999497	-0.004797	0.007593	0.005038	0.999958	
14397								0.079505	0.052775	9.777177	0.999481	0.031277	-0.007765	-0.031315	0.999498	-0.004800	0.007611	0.005041	0.999958	
14398								0.078039	0.061037	9.758050	0.999480	0.031291	-0.007756	-0.031329	0.999498	-0.004817	0.007601	0.005058	0.999958	
14399								0.096159	0.055708	9.765658	0.999479	0.031322	-0.007752	-0.031360	0.999497	-0.004821	0.007597	0.005062	0.999958	
14400								0.078947	0.053959	9.777175	0.999479	0.031316	-0.007773	-0.031354	0.999497	-0.004826	0.007618	0.005067	0.999958	
14401								0.069837	0.043079	9.762034	0.999480	0.031309	-0.007737	-0.031347	0.999497	-0.004788	0.007584	0.005028	0.999959	
14402								0.086673	0.045347	9.750518	0.999479	0.031318	-0.007761	-0.031356	0.999497	-0.004795	0.007607	0.005036	0.999958	
14403								0.089902	0.068946	9.759864	0.999479	0.031323	-0.007740	-0.031360	0.999497	-0.004777	0.007586	0.005017	0.999959	
14404								0.086143	0.045825	9.750520	0.999479	0.031323	-0.007731	-0.031360	0.999497	-0.004777	0.007577	0.005017	0.999959	
14405								0.068825	0.044023	9.762037	0.999480	0.031304	-0.007734	-0.031342	0.999497	-0.004777	0.007581	0.005017	0.999959	
14406								0.082793	0.043042	9.782979	0.999480	0.031307	-0.007711	-0.031345	0.999497	-0.004774	0.007557	0.005013	0.999959	
14407								0.071606	0.068197	9.771380	0.999480	0.031316	-0.007710	-0.031354	0.999497	-0.004824	0.007555	0.005063	0.999959	
14408								0.082182	0.044114	9.782979	0.999481	0.031286	-0.007696	-0.031323	0.999498	-0.004820	0.007541	0.005058	0.999959	
14409								0.071731	0.041207	9.748710	0.999481	0.031285	-0.007687	-0.031323	0.999498	-0.004819	0.007532	0.005058	0.999959	
14410								0.094573	0.051218	9.784795	0.999480	0.031302	-0.007684	-0.031339	0.999497	-0.004806	0.007529	0.005044	0.999959	
14411								0.080131	0.052758	9.763852	0.999480	0.031314	-0.007692	-0.031351	0.999497	-0.004811	0.007537	0.005049	0.999959	
14412								0.079908	0.053165	9.763852	0.999480	0.031313	-0.007680	-0.031350	0.999497	-0.004825	0.007525	0.005064	0.999959	
14413								0.088434	0.064585	9.778994	0.999480	0.031313	-0.007671	-0.031351	0.999497	-0.004825	0.007516	0.005063	0.999959	
14414								0.079217	0.053814	9.763854	0.999481	0.031285	-0.007642	-0.031323	0.999498	-0.004818	0.007488	0.005055	0.999959	
14415								0.093053	0.052744	9.784802	0.999481	0.031305	-0.007624	-0.031342	0.999497	-0.004802	0.007470	0.005039	0.999959	
14416								0.074370	0.058777	9.777183	0.999481	0.031285	-0.007625	-0.031322	0.999498	-0.004818	0.007470	0.005054	0.999959	
14417								0.092488	0.053499	9.784803	0.999482	0.031269	-0.007610	-0.031306	0.999498	-0.004830	0.007455	0.005066	0.999959	
14418								0.076619	0.062978	9.744725	0.999482	0.031284	-0.007603	-0.031322	0.999498	-0.004832	0.007448	0.005068	0.999959	
14419								0.090663	0.062041	9.765672	0.999482	0.031266	-0.007607	-0.031303	0.999498	-0.004832	0.007452	0.005068	0.999959	
14420								0.078846	0.047946	9.782989	0.999482	0.031263	-0.007613	-0.031300	0.999498	-0.004835	0.007458	0.005070	0.999959	
14421								0.073230	0.060422	9.777182	0.999482	0.031264	-0.007610	-0.031301	0.999498	-0.004804	0.007456	0.005040	0.999960	
14422								0.086006	0.067179	9.778998	0.999482	0.031262	-0.007616	-0.031299	0.999499	-0.004806	0.007462	0.005042	0.999959	
14423								0.099560	0.046371	9.758155	0.999482	0.031273	-0.007621	-0.031311	0.999498	-0.004825	0.007466	0.005061	0.999959	
14424								0.072606	0.061324	9.777181	0.999482	0.031263	-0.007598	-0.031300	0.999498	-0.004805	0.007444	0.005040	0.999960	
14425								0.076583	0.056874	9.763858	0.999482	0.031260	-0.007628	-0.031297	0.999499	-0.004764	0.007475	0.005000	0.999960	
14426								0.089459	0.063586	9.765674	0.999482	0.031276	-0.007621	-0.031313	0.999498	-0.004766	0.007469	0.005002	0.999960	
14427								0.098727	0.047203	9.758160	0.999482	0.031260	-0.007607	-0.031297	0.999499	-0.004779	0.007454	0.005014	0.999960	
14428								0.075954	0.057860	9.763857	0.999481	0.031286	-0.007615	-0.031324	0.999498	-0.004800	0.007461	0.005036	0.999959	
14429								0.080018	0.053744	9.750532	0.999482	0.031251	-0.007634	-0.031288	0.999499	-0.004785	0.007480	0.005021	0.999959	
14430								0.075658	0.058434	9.763856	0.999482	0.031255	-0.007610	-0.031292	0.999499	-0.004782	0.007457	0.005018	0.999960	
14431								0.080802	0.046529	9.769668	0.999482	0.031267	-0.007615	-0.031304	0.999498	-0.004801	0.007462	0.005037	0.999959	
14432								0.088130	0.065675	9.765672	0.999482	0.031269	-0.007613	-0.031306	0.999498	-0.004770	0.007460	0.005006	0.999960	
14433								0.067387	0.040431	9.767852	0.999482	0.031269	-0.007601	-0.031306	0.999498	-0.004785	0.007448	0.005020	0.999960	
14434								0.076039	0.051898	9.782991	0.999482	0.031263	-0.007622	-0.031300	0.999499	-0.004789	0.007468	0.005025	0.999959	
14435								0.075865	0.052296	9.782990	0.999483	0.031247	-0.007608	-0.031284	0.999499	-0.004802	0.007454	0.005037	0.999960	
14436								0.058505	0.050628	9.794495	0.999483	0.031243	-0.007611	-0.031280	0.999499	-0.004820	0.007456	0.005055	0.999959	
14437								0.076660	0.045408	9.802125	0.999482	0.031256	-0.007601	-0.031294	0.999499	-0.004837	0.007446	0.005072	0.999959	
14438								0.100487	0.046584	9.744843	0.999483	0.031245	-0.007599	-0.031282	0.999499	-0.004789	0.007446	0.005024	0.999960	
14439								0.073709	0.061546	9.763851	0.999484	0.031217	-0.007623	-0.031254	0.999500	-0.004840	0.007468	0.005075	0.999959	
14440								0.065875	0.043112	9.767851	0.999483	0.031243	-0.007575	-0.031280	0.999499	-0.004819	0.007421	0.005053	0.999960	
14441								0.079813	0.042040	9.788808	0.999483	0.031238	-0.007599	-0.031275	0.999499	-0.004808	0.007445	0.005043	0.999960	
14442								0.068881	0.066730	9.777172	0.999484	0.031207	-0.007607	-0.031244	0.999500	-0.004775	0.007454	0.005010	0.999960	
14443								0.095488	0.052351	9.758166	0.999484	0.031200	-0.007624	-0.031237	0.999500	-0.004795	0.007471	0.005031	0.999959	
14444								0.087018	0.061773	9.784805	0.999484	0.031199	-0.007612	-0.031237	0.999500	-0.004810	0.007459	0.005045	0.999959	
14445								0.078066	0.051042	9.769667	0.999484	0.031194	-0.007636	-0.031231	0.999501	-0.004799	0.007483	0.005035	0.999959	
14446								0.082043	0.047066	9.756347	0.999484	0.031206	-0.007620	-0.031244	0.999500	-0.004846	0.007465	0.005082	0.999959	
14447								0.059314	0.057794	9.762027	0.999484	0.031200	-0.007642	-0.031238	0.999500	-0.004851	0.007486	0.005087	0.999959	
14448								0.095862	0.046799	9.777302	0.999485	0.031187	-0.007612	-0.031224	0.999501	-0.004861	0.007457	0.005097	0.999959	
14449								0.090073	0.059434	9.771482	0.999486	0.031153	-0.007613	-0.031191	0.999502	-0.004859	0.007458	0.005094	0.999959	
14450								0.095309	0.047383	9.777305	0.999485	0.031170	-0.007610	-0.031207	0.999501	-0.004846	0.007455	0.005081	0.999959	
14451								0.079490	0.056648	9.737208	0.999486	0.031155	-0.007598	-0.031192	0.999502	-0.004843	0.007443	0.005078	0.999959	
14452								0.063367	0.047154	9.767849	0.999485	0.031169	-0.007586	-0.031206	0.999501	-0.004876	0.007430	0.005110	0.999959	
14453								0.080338	0.049547	9.756349	0.999486	0.031151	-0.007614	-0.031188	0.999502	-0.004832	0.007459	0.005067	0.999959	
14454								0.081461	0.041821	9.775491	0.999486	0.031154	-0.007590	-0.031191	0.999502	-0.004830	0.007436	0.005064	0.999960	
14455								0.099564	0.036532	9.783134	0.999485	0.031166	-0.007596	-0.031203	0.999501	-0.004849	0.007441	0.005084	0.999959	
14456								0.079622	0.050410	9.756350	0.999486	0.031136	-0.007581	-0.031173	0.999502	-0.004844	0.007427	0.005078	0.999960	
14457								0.075224	0.055266	9.769667	0.999486	0.031147	-0.007587	-0.031184	0.999502	-0.004864	0.007432	0.005098	0.999959	
14458								0.086685	0.070253	9.752339	0.999486	0.031143	-0.007586	-0.031180	0.999502	-0.004896	0.007430	0.005130	0.999959	
14459								0.080320	0.044045	9.775491	0.999486	0.031155	-0.007595	-0.031193	0.999501	-0.004900	0.007439	0.005134	0.999959	
14460								0.074723	0.056665	9.769662	0.999486	0.031138	-0.007599	-0.031175	0.999502	-0.004900	0.007442	0.005134	0.999959	
14461								0.091629	0.058962	9.758165	0.999486	0.031140	-0.007596	-0.031177	0.999502	-0.004869	0.007441	0.005103	0.999959	
14462								0.091489	0.059213	9.758165	0.999487	0.031117	-0.007611	-0.031155	0.999503	-0.004887	0.007455	0.005121	0.999959	
14463								0.080925	0.037308	9.794636	0.999486	0.031136	-0.007593	-0.031174	0.999502	-0.004871	0.007437	0.005105	0.999959	
14464								0.086972	0.064345	9.771479	0.999487	0.031111	-0.007622	-0.031149	0.999503	-0.004891	0.007466	0.005126	0.999959	
14465								0.100632	0.043400	9.750679	0.999485	0.031163	-0.007612	-0.031200	0.999501	-0.004864	0.007457	0.005099	0.999959	
14466								0.086508	0.064713	9.771481	0.999486	0.031152	-0.007590	-0.031190	0.999502	-0.004844	0.007435	0.005078	0.999959	
14467								0.091770	0.052595	9.777312	0.999486	0.031147	-0.007614	-0.031185	0.999502	-0.004833	0.007459	0.005068	0.999959	
14468								0.073116	0.058422	9.769664	0.999486	0.031155	-0.007578	-0.031192	0.999502	-0.004813	0.007424	0.005047	0.999960	
14469								0.082303	0.041859	9.762184	0.999486	0.031140	-0.007566	-0.031177	0.999502	-0.004810	0.007413	0.005044	0.999960	
14470								0.076556	0.054319	9.756354	0.999484	0.031206	-0.007559	-0.031243	0.999500	-0.004786	0.007406	0.005020	0.999960	
14471								0.073458	0.051258	9.788813	0.999485	0.031187	-0.007559	-0.031224	0.999501	-0.004801	0.007406	0.005035	0.999960	
14472								0.094407	0.049209	9.764007	0.999486	0.031176	-0.007536	-0.031212	0.999501	-0.004781	0.007384	0.005014	0.999960	
14473								0.070182	0.067344	9.750523	0.999486	0.031160	-0.007525	-0.031197	0.999502	-0.004779	0.007373	0.005011	0.999960	
14474								0.097913	0.045237	9.750698	0.999486	0.031176	-0.007519	-0.031212	0.999501	-0.004781	0.007366	0.005013	0.999960	
14475								0.070944	0.060230	9.769669	0.999487	0.031141	-0.007517	-0.031178	0.999502	-0.004794	0.007364	0.005026	0.999960	
14476								0.087728	0.062742	9.758177	0.999486	0.031160	-0.007495	-0.031196	0.999502	-0.004793	0.007342	0.005024	0.999960	
14477								0.075758	0.048650	9.775505	0.999485	0.031191	-0.007491	-0.031227	0.999501	-0.004797	0.007338	0.005028	0.999960	
14478								0.074411	0.056823	9.756356	0.999485	0.031182	-0.007527	-0.031218	0.999501	-0.004804	0.007373	0.005036	0.999960	
14479								0.088473	0.056044	9.777323	0.999486	0.031169	-0.007497	-0.031206	0.999501	-0.004814	0.007343	0.005045	0.999960	
14480								0.088261	0.056280	9.777324	0.999486	0.031166	-0.007525	-0.031202	0.999502	-0.004787	0.007372	0.005020	0.999960	
14481								0.087009	0.064308	9.758173	0.999485	0.031175	-0.007548	-0.031212	0.999501	-0.004794	0.007395	0.005028	0.999960	
14482								0.088311	0.056791	9.777320	0.999486	0.031140	-0.007567	-0.031176	0.999502	-0.004779	0.007415	0.005013	0.999960	
14483								0.096645	0.048115	9.750697	0.999486	0.031148	-0.007590	-0.031185	0.999502	-0.004787	0.007437	0.005021	0.999960	
14484								0.093686	0.045096	9.783156	0.999485	0.031180	-0.007590	-0.031217	0.999501	-0.004776	0.007437	0.005010	0.999960	
14485								0.065435	0.067689	9.782971	0.999484	0.031197	-0.007586	-0.031234	0.999501	-0.004762	0.007434	0.004997	0.999960	
14486								0.080133	0.038797	9.781341	0.999485	0.031190	-0.007549	-0.031226	0.999501	-0.004739	0.007397	0.004973	0.999960	
14487								0.077230	0.054584	9.743043	0.999486	0.031153	-0.007564	-0.031189	0.999502	-0.004740	0.007413	0.004973	0.999960	
14488								0.081764	0.070432	9.771482	0.999485	0.031167	-0.007576	-0.031203	0.999502	-0.004729	0.007425	0.004962	0.999960	
14489								0.078261	0.047176	9.762193	0.999484	0.031203	-0.007564	-0.031239	0.999501	-0.004700	0.007413	0.004933	0.999960	
14490								0.073868	0.051751	9.775504	0.999485	0.031186	-0.007571	-0.031222	0.999502	-0.004685	0.007421	0.004918	0.999960	
14491								0.082494	0.063110	9.790634	0.999485	0.031183	-0.007577	-0.031219	0.999502	-0.004686	0.007427	0.004920	0.999960	
14492								0.090603	0.054464	9.764015	0.999486	0.031169	-0.007566	-0.031205	0.999502	-0.004684	0.007416	0.004917	0.999960	
14493								0.090285	0.054834	9.764016	0.999486	0.031168	-0.007554	-0.031204	0.999502	-0.004699	0.007403	0.004932	0.999960	
14494								0.095764	0.042942	9.769856	0.999485	0.031172	-0.007610	-0.031208	0.999502	-0.004695	0.007460	0.004930	0.999960	
14495								0.073172	0.053313	9.775501	0.999487	0.031111	-0.007590	-0.031147	0.999504	-0.004686	0.007441	0.004920	0.999960	
14496								0.089984	0.055803	9.764013	0.999488	0.031092	-0.007591	-0.031128	0.999504	-0.004701	0.007441	0.004935	0.999960	
14497								0.089899	0.056142	9.764012	0.999488	0.031086	-0.007615	-0.031122	0.999505	-0.004691	0.007465	0.004926	0.999960	
14498								0.095229	0.044125	9.769856	0.999488	0.031072	-0.007604	-0.031108	0.999505	-0.004688	0.007454	0.004922	0.999960	
14499								0.072319	0.054682	9.775499	0.999488	0.031069	-0.007588	-0.031106	0.999505	-0.004718	0.007438	0.004952	0.999960	
14500								0.076310	0.050684	9.762191	0.999488	0.031063	-0.007609	-0.031099	0.999505	-0.004724	0.007459	0.004958	0.999960	
14501								0.080404	0.046639	9.748882	0.999488	0.031074	-0.007615	-0.031110	0.999505	-0.004743	0.007463	0.004978	0.999960	
14502								0.090286	0.050370	9.783163	0.999489	0.031040	-0.007615	-0.031077	0.999506	-0.004741	0.007465	0.004975	0.999960	
14503								0.070278	0.063981	9.756342	0.999490	0.031029	-0.007592	-0.031066	0.999506	-0.004721	0.007442	0.004954	0.999960	
14504								0.088672	0.058494	9.764010	0.999489	0.031050	-0.007654	-0.031087	0.999506	-0.004704	0.007504	0.004940	0.999960	
14505								0.075871	0.052112	9.762186	0.999489	0.031048	-0.007660	-0.031084	0.999506	-0.004706	0.007510	0.004942	0.999960	
14506								0.077036	0.044677	9.781340	0.999488	0.031059	-0.007669	-0.031096	0.999505	-0.004711	0.007519	0.004947	0.999959	
14507								0.088510	0.059423	9.764005	0.999489	0.031026	-0.007670	-0.031063	0.999506	-0.004709	0.007520	0.004944	0.999959	
14508								0.089641	0.051955	9.783160	0.999489	0.031023	-0.007676	-0.031060	0.999506	-0.004711	0.007526	0.004947	0.999959	
14509								0.084110	0.064496	9.777310	0.999489	0.031018	-0.007700	-0.031055	0.999507	-0.004700	0.007550	0.004937	0.999959	
14510								0.088128	0.060337	9.764003	0.999490	0.031002	-0.007685	-0.031039	0.999507	-0.004713	0.007535	0.004949	0.999959	
14511								0.074982	0.054017	9.762183	0.999489	0.031015	-0.007697	-0.031052	0.999507	-0.004702	0.007547	0.004939	0.999959	
14512								0.087808	0.061072	9.764002	0.999490	0.030976	-0.007706	-0.031013	0.999508	-0.004733	0.007556	0.004970	0.999959	
14513								0.087621	0.061458	9.764001	0.999490	0.030977	-0.007701	-0.031014	0.999508	-0.004718	0.007551	0.004954	0.999959	
14514								0.074511	0.054989	9.762181	0.999490	0.030975	-0.007709	-0.031012	0.999508	-0.004705	0.007560	0.004942	0.999959	
14515								0.079868	0.042905	9.768033	0.999491	0.030958	-0.007716	-0.030995	0.999509	-0.004690	0.007567	0.004927	0.999959	
14516								0.068844	0.067691	9.756327	0.999491	0.030951	-0.007737	-0.030988	0.999509	-0.004695	0.007588	0.004932	0.999959	
14517								0.092524	0.050275	9.769853	0.999492	0.030919	-0.007717	-0.030956	0.999510	-0.004720	0.007567	0.004957	0.999959	
14518								0.087948	0.055201	9.783158	0.999491	0.030953	-0.007698	-0.030990	0.999509	-0.004722	0.007548	0.004958	0.999959	
14519								0.083145	0.039853	9.754731	0.999491	0.030967	-0.007710	-0.031004	0.999508	-0.004711	0.007560	0.004947	0.999959	
14520								0.087499	0.055708	9.783159	0.999492	0.030937	-0.007696	-0.030973	0.999509	-0.004706	0.007547	0.004942	0.999959	
14521								0.067611	0.069265	9.756325	0.999491	0.030966	-0.007713	-0.031003	0.999508	-0.004682	0.007564	0.004919	0.999959	
14522								0.082584	0.040450	9.754733	0.999491	0.030951	-0.007702	-0.030988	0.999509	-0.004680	0.007553	0.004916	0.999959	
14523								0.069461	0.034048	9.752913	0.999491	0.030964	-0.007713	-0.031001	0.999508	-0.004669	0.007565	0.004905	0.999959	
14524								0.089790	0.059808	9.750698	0.999491	0.030944	-0.007734	-0.030980	0.999509	-0.004656	0.007586	0.004894	0.999959	
14525								0.073783	0.050120	9.781339	0.999491	0.030962	-0.007713	-0.030999	0.999509	-0.004656	0.007565	0.004892	0.999959	
14526								0.068022	0.062695	9.775482	0.999491	0.030960	-0.007720	-0.030996	0.999509	-0.004658	0.007572	0.004895	0.999959	
14527								0.084911	0.065183	9.764001	0.999491	0.030959	-0.007712	-0.030996	0.999509	-0.004658	0.007564	0.004895	0.999959	
14528								0.095547	0.040904	9.775719	0.999490	0.030979	-0.007694	-0.031015	0.999508	-0.004642	0.007546	0.004879	0.999960	
14529								0.079875	0.050208	9.735576	0.999491	0.030968	-0.007723	-0.031005	0.999508	-0.004680	0.007574	0.004917	0.999959	
14530								0.089845	0.054155	9.769857	0.999491	0.030949	-0.007724	-0.030986	0.999509	-0.004695	0.007575	0.004932	0.999959	
14531								0.079837	0.071339	9.777298	0.999491	0.030951	-0.007697	-0.030988	0.999509	-0.004707	0.007547	0.004943	0.999959	
14532								0.072093	0.052811	9.781337	0.999491	0.030948	-0.007702	-0.030985	0.999509	-0.004709	0.007553	0.004946	0.999959	
14533								0.080310	0.044160	9.754736	0.999492	0.030930	-0.007706	-0.030967	0.999509	-0.004709	0.007556	0.004946	0.999959	
14534								0.084555	0.060089	9.783159	0.999492	0.030933	-0.007682	-0.030970	0.999509	-0.004707	0.007532	0.004942	0.999959	
14535								0.084294	0.060335	9.783160	0.999491	0.030946	-0.007693	-0.030983	0.999509	-0.004696	0.007544	0.004932	0.999959	
14536								0.076818	0.041714	9.787200	0.999491	0.030940	-0.007714	-0.030977	0.999509	-0.004700	0.007565	0.004937	0.999959	
14537								0.085319	0.053173	9.802321	0.999492	0.030929	-0.007688	-0.030965	0.999509	-0.004695	0.007539	0.004931	0.999959	
14538								0.092109	0.052264	9.756560	0.999492	0.030941	-0.007697	-0.030978	0.999509	-0.004699	0.007547	0.004935	0.999959	
14539								0.074903	0.050603	9.768036	0.999492	0.030933	-0.007712	-0.030970	0.999509	-0.004734	0.007561	0.004971	0.999959	
14540								0.079057	0.046625	9.754735	0.999492	0.030927	-0.007733	-0.030965	0.999509	-0.004739	0.007582	0.004976	0.999959	
14541								0.083341	0.062737	9.783153	0.999492	0.030928	-0.007703	-0.030966	0.999509	-0.004767	0.007552	0.005003	0.999959	
14542								0.092697	0.046453	9.775721	0.999492	0.030926	-0.007709	-0.030963	0.999509	-0.004769	0.007558	0.005005	0.999959	
14543								0.078377	0.047650	9.754735	0.999492	0.030911	-0.007722	-0.030948	0.999510	-0.004723	0.007573	0.004959	0.999959	
14544								0.088213	0.051309	9.789020	0.999491	0.030940	-0.007712	-0.030977	0.999509	-0.004757	0.007561	0.004994	0.999959	
14545								0.068419	0.065169	9.762163	0.999491	0.030931	-0.007748	-0.030968	0.999509	-0.004764	0.007597	0.005002	0.999959	
14546								0.083607	0.036561	9.760600	0.999491	0.030943	-0.007756	-0.030980	0.999509	-0.004769	0.007605	0.005007	0.999959	
14547								0.090825	0.055807	9.756553	0.999491	0.030943	-0.007747	-0.030981	0.999509	-0.004769	0.007596	0.005006	0.999959	
14548								0.091895	0.048364	9.775720	0.999492	0.030925	-0.007750	-0.030962	0.999509	-0.004769	0.007599	0.005006	0.999959	
14549								0.082021	0.065488	9.783146	0.999492	0.030905	-0.007750	-0.030943	0.999510	-0.004784	0.007598	0.005021	0.999959	
14550								0.086177	0.061199	9.769848	0.999492	0.030918	-0.007783	-0.030956	0.999509	-0.004745	0.007633	0.004983	0.999958	
14551								0.067686	0.066902	9.762157	0.999492	0.030918	-0.007775	-0.030955	0.999510	-0.004745	0.007624	0.004983	0.999959	
14552								0.095540	0.044974	9.762423	0.999492	0.030898	-0.007775	-0.030936	0.999510	-0.004760	0.007624	0.004998	0.999958	
14553								0.085673	0.062109	9.769847	0.999492	0.030894	-0.007780	-0.030932	0.999510	-0.004763	0.007629	0.005001	0.999958	
14554								0.076810	0.051281	9.754729	0.999484	0.031184	-0.007712	-0.031222	0.999501	-0.004800	0.007558	0.005038	0.999959	
14555								0.065034	0.037270	9.772076	0.999484	0.031175	-0.007715	-0.031213	0.999501	-0.004817	0.007561	0.005055	0.999959	
14556								0.100587	0.054341	9.810004	0.999484	0.031183	-0.007694	-0.031221	0.999501	-0.004799	0.007541	0.005037	0.999959	
14557								0.064553	0.037739	9.772077	0.999485	0.031159	-0.007716	-0.031197	0.999502	-0.004786	0.007563	0.005025	0.999959	
14558								0.084855	0.063668	9.769844	0.999485	0.031138	-0.007731	-0.031175	0.999502	-0.004804	0.007578	0.005043	0.999959	
14559								0.089045	0.059624	9.756546	0.999484	0.031165	-0.007757	-0.031203	0.999501	-0.004813	0.007603	0.005053	0.999958	
14560								0.063493	0.066724	9.794608	0.999485	0.031151	-0.007763	-0.031188	0.999502	-0.004798	0.007610	0.005037	0.999958	
14561								0.085902	0.056913	9.789010	0.999484	0.031171	-0.007756	-0.031209	0.999501	-0.004800	0.007603	0.005039	0.999958	
14562								0.089913	0.052678	9.775716	0.999484	0.031174	-0.007765	-0.031212	0.999501	-0.004786	0.007612	0.005026	0.999958	
14563								0.063965	0.039587	9.772074	0.999484	0.031173	-0.007770	-0.031211	0.999501	-0.004788	0.007617	0.005028	0.999958	
14564								0.085350	0.057833	9.789009	0.999484	0.031173	-0.007758	-0.031211	0.999501	-0.004803	0.007605	0.005043	0.999958	
14565								0.088038	0.061316	9.756545	0.999484	0.031156	-0.007768	-0.031194	0.999502	-0.004773	0.007616	0.005013	0.999958	
14567								0.085670	0.063895	9.763192	0.999484	0.031156	-0.007765	-0.031193	0.999502	-0.004775	0.007612	0.005014	0.999958	
14568								0.074507	0.055666	9.754723	0.999485	0.031136	-0.007759	-0.031174	0.999502	-0.004820	0.007605	0.005060	0.999958	
14569								0.070094	0.060707	9.768014	0.999485	0.031133	-0.007765	-0.031171	0.999502	-0.004822	0.007611	0.005062	0.999958	
14570								0.092551	0.050980	9.762422	0.999486	0.031117	-0.007768	-0.031155	0.999503	-0.004823	0.007614	0.005062	0.999958	
14571								0.073911	0.056843	9.754721	0.999486	0.031116	-0.007759	-0.031154	0.999503	-0.004822	0.007605	0.005062	0.999958	
14572								0.087973	0.056125	9.775714	0.999486	0.031110	-0.007780	-0.031148	0.999503	-0.004827	0.007626	0.005067	0.999958	
14573								0.073781	0.057470	9.754718	0.999486	0.031106	-0.007803	-0.031144	0.999503	-0.004818	0.007650	0.005058	0.999958	
14574								0.084593	0.033250	9.766482	0.999486	0.031109	-0.007780	-0.031147	0.999503	-0.004815	0.007626	0.005055	0.999958	
14575								0.087614	0.057065	9.775712	0.999486	0.031085	-0.007810	-0.031123	0.999504	-0.004835	0.007655	0.005076	0.999958	
14576								0.078744	0.046194	9.760600	0.999487	0.031077	-0.007786	-0.031115	0.999504	-0.004815	0.007633	0.005055	0.999958	
14577								0.091422	0.053189	9.762421	0.999487	0.031073	-0.007804	-0.031111	0.999504	-0.004835	0.007649	0.005075	0.999958	
14578								0.072900	0.059233	9.754714	0.999487	0.031068	-0.007806	-0.031106	0.999504	-0.004853	0.007652	0.005093	0.999958	
14579								0.078106	0.047296	9.760600	0.999487	0.031056	-0.007784	-0.031094	0.999505	-0.004832	0.007630	0.005071	0.999958	
14580								0.068126	0.064175	9.768006	0.999487	0.031052	-0.007793	-0.031090	0.999505	-0.004819	0.007639	0.005059	0.999958	
14581								0.068058	0.064441	9.768005	0.999488	0.031032	-0.007811	-0.031070	0.999506	-0.004822	0.007658	0.005062	0.999958	
14582								0.086428	0.059313	9.775709	0.999488	0.031010	-0.007826	-0.031049	0.999506	-0.004840	0.007672	0.005080	0.999958	
14583								0.073385	0.052876	9.773888	0.999488	0.031015	-0.007823	-0.031053	0.999506	-0.004809	0.007670	0.005049	0.999958	
14584								0.067598	0.065242	9.768002	0.999489	0.030986	-0.007809	-0.031024	0.999507	-0.004804	0.007656	0.005044	0.999958	
14585								0.084445	0.067579	9.756536	0.999489	0.031007	-0.007809	-0.031045	0.999507	-0.004775	0.007657	0.005015	0.999958	
14586								0.078295	0.041082	9.779777	0.999488	0.031034	-0.007837	-0.031072	0.999506	-0.004769	0.007685	0.005011	0.999958	
14587								0.097239	0.074796	9.758354	0.999488	0.031029	-0.007840	-0.031067	0.999506	-0.004787	0.007688	0.005028	0.999958	
14588								0.075462	0.057394	9.741421	0.999488	0.031027	-0.007843	-0.031065	0.999506	-0.004805	0.007690	0.005046	0.999958	
14589								0.086586	0.053632	9.794884	0.999487	0.031039	-0.007848	-0.031078	0.999505	-0.004824	0.007694	0.005066	0.999958	
14590								0.076586	0.050613	9.760595	0.999487	0.031029	-0.007884	-0.031067	0.999506	-0.004832	0.007730	0.005074	0.999957	
14591								0.086441	0.034140	9.753195	0.999486	0.031055	-0.007916	-0.031094	0.999505	-0.004811	0.007763	0.005054	0.999957	
14592								0.066903	0.067810	9.767990	0.999486	0.031054	-0.007907	-0.031093	0.999505	-0.004811	0.007754	0.005054	0.999957	
14593								0.076358	0.051315	9.760593	0.999486	0.031057	-0.007902	-0.031096	0.999505	-0.004795	0.007749	0.005039	0.999957	
14594								0.090307	0.050449	9.781594	0.999486	0.031059	-0.007896	-0.031098	0.999505	-0.004780	0.007744	0.005023	0.999957	
14595								0.081487	0.039598	9.766485	0.999486	0.031068	-0.007916	-0.031107	0.999505	-0.004802	0.007763	0.005046	0.999957	
14596								0.088790	0.058957	9.762412	0.999486	0.031064	-0.007922	-0.031102	0.999505	-0.004804	0.007769	0.005048	0.999957	
14597								0.079960	0.048091	9.747304	0.999486	0.031059	-0.007929	-0.031097	0.999505	-0.004807	0.007775	0.005051	0.999957	
14598								0.076795	0.045034	9.779772	0.999486	0.031065	-0.007911	-0.031104	0.999505	-0.004774	0.007759	0.005018	0.999957	
14599								0.071138	0.057508	9.773878	0.999487	0.031038	-0.007941	-0.031077	0.999505	-0.004794	0.007789	0.005039	0.999957	
14600								0.075406	0.053275	9.760590	0.999488	0.031002	-0.007964	-0.031041	0.999507	-0.004764	0.007812	0.005009	0.999957	
14601								0.075285	0.053452	9.760590	0.999487	0.031018	-0.007957	-0.031057	0.999506	-0.004766	0.007805	0.005011	0.999957	
14602								0.075019	0.053783	9.760590	0.999487	0.031036	-0.007950	-0.031074	0.999506	-0.004768	0.007799	0.005012	0.999957	
14603								0.070639	0.058697	9.773875	0.999487	0.031013	-0.007965	-0.031052	0.999506	-0.004786	0.007813	0.005030	0.999957	
14604								0.093241	0.049102	9.768303	0.999487	0.031008	-0.007986	-0.031047	0.999506	-0.004790	0.007834	0.005035	0.999957	
14605								0.087575	0.061659	9.762407	0.999487	0.031009	-0.007977	-0.031048	0.999506	-0.004790	0.007825	0.005035	0.999957	
14606								0.070123	0.059776	9.773872	0.999486	0.031042	-0.007959	-0.031081	0.999505	-0.004791	0.007806	0.005036	0.999957	
14607								0.064262	0.072311	9.767975	0.999486	0.031044	-0.007950	-0.031082	0.999505	-0.004791	0.007797	0.005035	0.999957	
14608								0.097820	0.038216	9.774203	0.999485	0.031067	-0.007976	-0.031106	0.999505	-0.004800	0.007822	0.005046	0.999957	
14609								0.079353	0.044102	9.766483	0.999485	0.031065	-0.007981	-0.031104	0.999505	-0.004803	0.007828	0.005048	0.999957	
14610								0.079136	0.044424	9.766484	0.999486	0.031067	-0.007972	-0.031106	0.999505	-0.004802	0.007819	0.005048	0.999957	
14611								0.082008	0.068175	9.775689	0.999485	0.031082	-0.007966	-0.031121	0.999504	-0.004804	0.007813	0.005049	0.999957	
14612								0.078545	0.045209	9.766485	0.999485	0.031080	-0.007951	-0.031119	0.999504	-0.004834	0.007797	0.005079	0.999957	
14613								0.073987	0.050158	9.779769	0.999486	0.031066	-0.007939	-0.031105	0.999504	-0.004831	0.007785	0.005075	0.999957	
14614								0.072389	0.058077	9.760586	0.999486	0.031052	-0.007932	-0.031091	0.999505	-0.004814	0.007778	0.005058	0.999957	
14615								0.085165	0.065063	9.762406	0.999485	0.031078	-0.007957	-0.031117	0.999504	-0.004824	0.007803	0.005069	0.999957	
14616								0.073430	0.050980	9.779769	0.999486	0.031048	-0.007943	-0.031087	0.999505	-0.004819	0.007790	0.005063	0.999957	
14617								0.080451	0.070126	9.775688	0.999485	0.031083	-0.007928	-0.031122	0.999504	-0.004805	0.007775	0.005050	0.999957	
14618								0.077081	0.046874	9.766489	0.999485	0.031082	-0.007937	-0.031121	0.999504	-0.004792	0.007784	0.005037	0.999957	
14619								0.072663	0.051545	9.779771	0.999486	0.031069	-0.007928	-0.031108	0.999505	-0.004774	0.007776	0.005019	0.999957	
14620								0.071143	0.059389	9.760587	0.999487	0.031038	-0.007932	-0.031076	0.999506	-0.004757	0.007781	0.005001	0.999957	
14621								0.078008	0.039689	9.785675	0.999486	0.031059	-0.007976	-0.031098	0.999505	-0.004753	0.007825	0.004999	0.999957	
14622								0.071150	0.059823	9.760584	0.999486	0.031045	-0.007968	-0.031084	0.999506	-0.004736	0.007817	0.004981	0.999957	
14623								0.079674	0.071298	9.775686	0.999486	0.031039	-0.007989	-0.031077	0.999506	-0.004741	0.007838	0.004987	0.999957	
14624								0.062143	0.049306	9.745480	0.999487	0.031006	-0.007969	-0.031045	0.999507	-0.004766	0.007817	0.005011	0.999957	
14625								0.088978	0.055422	9.768309	0.999487	0.031021	-0.007980	-0.031059	0.999506	-0.004756	0.007829	0.005001	0.999957	
14626								0.080200	0.044470	9.753207	0.999487	0.031019	-0.007986	-0.031057	0.999506	-0.004758	0.007835	0.005004	0.999957	
14627								0.058711	0.047105	9.777946	0.999487	0.031016	-0.007992	-0.031054	0.999506	-0.004761	0.007841	0.005006	0.999957	
14628								0.075700	0.049578	9.766486	0.999487	0.031015	-0.008001	-0.031054	0.999506	-0.004748	0.007850	0.004994	0.999957	
14629								0.074137	0.057523	9.747299	0.999486	0.031034	-0.007980	-0.031072	0.999506	-0.004747	0.007829	0.004992	0.999957	
14630								0.086746	0.064563	9.749121	0.999487	0.031031	-0.007986	-0.031069	0.999506	-0.004749	0.007835	0.004995	0.999957	
14631								0.073983	0.078444	9.788958	0.999487	0.031024	-0.008007	-0.031063	0.999506	-0.004754	0.007856	0.005000	0.999957	
14632								0.075087	0.050858	9.766484	0.999487	0.031017	-0.008028	-0.031056	0.999506	-0.004759	0.007877	0.005006	0.999956	
14633								0.080458	0.039061	9.772393	0.999487	0.031017	-0.008017	-0.031055	0.999506	-0.004774	0.007864	0.005021	0.999956	
14634								0.077731	0.074994	9.775674	0.999488	0.030988	-0.008005	-0.031027	0.999507	-0.004754	0.007854	0.005000	0.999957	
14635								0.075692	0.044080	9.785674	0.999488	0.030986	-0.008011	-0.031025	0.999507	-0.004757	0.007860	0.005003	0.999957	
14636								0.091371	0.054338	9.755027	0.999487	0.030999	-0.008019	-0.031038	0.999507	-0.004761	0.007868	0.005008	0.999957	
14637								0.069811	0.056871	9.779763	0.999488	0.030971	-0.008009	-0.031009	0.999508	-0.004741	0.007858	0.004986	0.999957	
14638								0.090817	0.054794	9.755030	0.999487	0.031004	-0.007991	-0.031043	0.999507	-0.004742	0.007840	0.004988	0.999957	
14639								0.073482	0.052900	9.766486	0.999488	0.030968	-0.008006	-0.031007	0.999508	-0.004743	0.007855	0.004989	0.999957	
14640								0.073522	0.053342	9.766483	0.999488	0.030972	-0.008042	-0.031011	0.999508	-0.004768	0.007890	0.005015	0.999956	
14641								0.077778	0.049219	9.753203	0.999487	0.030986	-0.008053	-0.031025	0.999507	-0.004757	0.007902	0.005004	0.999956	
14642								0.074660	0.046300	9.785672	0.999487	0.030987	-0.008044	-0.031026	0.999507	-0.004757	0.007893	0.005004	0.999956	
14643								0.098885	0.067847	9.770123	0.999487	0.030984	-0.008047	-0.031023	0.999507	-0.004774	0.007895	0.005021	0.999956	
14644								0.081574	0.066102	9.781577	0.999488	0.030965	-0.008047	-0.031004	0.999508	-0.004789	0.007894	0.005036	0.999956	
14645								0.091185	0.049797	9.774215	0.999488	0.030977	-0.008055	-0.031017	0.999507	-0.004794	0.007903	0.005041	0.999956	
14646								0.065288	0.036682	9.770572	0.999488	0.030974	-0.008062	-0.031014	0.999507	-0.004796	0.007909	0.005043	0.999956	
14647								0.085335	0.062747	9.768297	0.999488	0.030956	-0.008062	-0.030995	0.999508	-0.004811	0.007909	0.005058	0.999956	
14648								0.094830	0.046562	9.760939	0.999488	0.030955	-0.008046	-0.030995	0.999508	-0.004840	0.007893	0.005087	0.999956	
14649								0.057881	0.057781	9.745459	0.999487	0.030983	-0.008082	-0.031023	0.999507	-0.004804	0.007929	0.005052	0.999956	
14650								0.100129	0.034776	9.766858	0.999487	0.030987	-0.008058	-0.031026	0.999507	-0.004802	0.007905	0.005049	0.999956	
14651								0.075881	0.052661	9.753200	0.999488	0.030971	-0.008065	-0.031010	0.999508	-0.004786	0.007912	0.005034	0.999956	
14652								0.088459	0.059693	9.755023	0.999488	0.030973	-0.008038	-0.031012	0.999507	-0.004799	0.007885	0.005045	0.999956	
14653								0.084033	0.064594	9.768297	0.999489	0.030933	-0.008069	-0.030972	0.999509	-0.004802	0.007916	0.005049	0.999956	
14654								0.071007	0.058193	9.766474	0.999488	0.030969	-0.008049	-0.031008	0.999508	-0.004803	0.007897	0.005050	0.999956	
14655								0.079151	0.049477	9.739927	0.999488	0.030970	-0.008040	-0.031009	0.999508	-0.004802	0.007888	0.005049	0.999956	
14656								0.066174	0.063185	9.779749	0.999488	0.030973	-0.008038	-0.031012	0.999508	-0.004772	0.007886	0.005019	0.999956	
14657								0.080111	0.042072	9.759123	0.999488	0.030968	-0.008062	-0.031007	0.999508	-0.004762	0.007910	0.005010	0.999956	
14658								0.080056	0.042349	9.759123	0.999488	0.030966	-0.008067	-0.031005	0.999508	-0.004764	0.007916	0.005011	0.999956	
14659								0.075590	0.047273	9.772396	0.999487	0.030981	-0.008058	-0.031020	0.999507	-0.004781	0.007906	0.005028	0.999956	
14660								0.066655	0.036492	9.757301	0.999487	0.030995	-0.008049	-0.031035	0.999507	-0.004798	0.007896	0.005045	0.999956	
14661								0.079218	0.043700	9.759123	0.999487	0.030995	-0.008036	-0.031034	0.999507	-0.004813	0.007883	0.005060	0.999956	
14662								0.087637	0.055381	9.774218	0.999486	0.031023	-0.008048	-0.031062	0.999506	-0.004820	0.007894	0.005068	0.999956	
14663								0.078789	0.044441	9.759124	0.999487	0.030993	-0.008033	-0.031032	0.999507	-0.004816	0.007880	0.005062	0.999956	
14664								0.069986	0.053760	9.785668	0.999487	0.030993	-0.008025	-0.031032	0.999507	-0.004816	0.007871	0.005062	0.999956	
14665								0.073906	0.049696	9.772397	0.999488	0.030991	-0.008010	-0.031031	0.999507	-0.004846	0.007856	0.005092	0.999956	
14666								0.090719	0.052305	9.760949	0.999488	0.030993	-0.008005	-0.031032	0.999507	-0.004830	0.007851	0.005076	0.999956	
14667								0.060364	0.043622	9.770575	0.999488	0.030996	-0.007978	-0.031035	0.999507	-0.004842	0.007824	0.005087	0.999956	
14668								0.063065	0.067360	9.779742	0.999488	0.030983	-0.007969	-0.031022	0.999507	-0.004824	0.007816	0.005069	0.999957	
14669								0.088082	0.021915	9.770987	0.999489	0.030963	-0.007990	-0.031002	0.999508	-0.004812	0.007838	0.005057	0.999956	
14670								0.084256	0.065525	9.755023	0.999488	0.030991	-0.008001	-0.031030	0.999507	-0.004819	0.007848	0.005064	0.999956	
14671								0.078087	0.039337	9.778327	0.999488	0.030972	-0.008001	-0.031012	0.999507	-0.004834	0.007847	0.005080	0.999956	
14672								0.097965	0.065311	9.776045	0.999489	0.030962	-0.007978	-0.031001	0.999508	-0.004814	0.007825	0.005059	0.999957	
14673								0.067568	0.036241	9.744037	0.999489	0.030960	-0.007983	-0.030999	0.999508	-0.004816	0.007830	0.005061	0.999957	
14674								0.101786	0.061352	9.762776	0.999481	0.031238	-0.007818	-0.031277	0.999499	-0.004828	0.007663	0.005070	0.999958	
14675								0.071587	0.052702	9.772398	0.999481	0.031258	-0.007811	-0.031296	0.999498	-0.004830	0.007656	0.005072	0.999958	
14676								0.075572	0.048512	9.759130	0.999480	0.031275	-0.007804	-0.031314	0.999498	-0.004832	0.007649	0.005074	0.999958	
14677								0.072417	0.045700	9.791599	0.999480	0.031271	-0.007810	-0.031309	0.999498	-0.004834	0.007655	0.005076	0.999958	
14678								0.080670	0.036819	9.765064	0.999480	0.031278	-0.007792	-0.031316	0.999498	-0.004801	0.007638	0.005042	0.999958	
14679								0.087723	0.056006	9.760956	0.999480	0.031292	-0.007797	-0.031331	0.999497	-0.004821	0.007642	0.005063	0.999958	
14680								0.088982	0.048632	9.780156	0.999480	0.031287	-0.007824	-0.031325	0.999498	-0.004795	0.007670	0.005038	0.999958	
14681								0.070548	0.054203	9.772398	0.999479	0.031300	-0.007835	-0.031338	0.999497	-0.004784	0.007681	0.005027	0.999958	
14682								0.075918	0.042279	9.778332	0.999479	0.031298	-0.007826	-0.031336	0.999497	-0.004784	0.007672	0.005026	0.999958	
14683								0.069908	0.054815	9.772399	0.999480	0.031304	-0.007784	-0.031342	0.999497	-0.004794	0.007630	0.005035	0.999958	
14684								0.082384	0.061928	9.774224	0.999480	0.031287	-0.007787	-0.031325	0.999498	-0.004794	0.007633	0.005035	0.999958	
14685								0.069581	0.055452	9.772398	0.999481	0.031261	-0.007838	-0.031300	0.999499	-0.004786	0.007684	0.005029	0.999958	
14686								0.060927	0.044459	9.757305	0.999479	0.031301	-0.007819	-0.031340	0.999497	-0.004788	0.007665	0.005030	0.999958	
14687								0.072247	0.079523	9.781551	0.999479	0.031312	-0.007809	-0.031350	0.999497	-0.004788	0.007655	0.005030	0.999958	
14688								0.073353	0.051948	9.759129	0.999480	0.031290	-0.007838	-0.031328	0.999498	-0.004809	0.007684	0.005052	0.999958	
14689								0.074654	0.044655	9.778331	0.999479	0.031306	-0.007849	-0.031344	0.999497	-0.004798	0.007695	0.005042	0.999958	
14690								0.080508	0.071594	9.755012	0.999480	0.031288	-0.007849	-0.031327	0.999498	-0.004813	0.007694	0.005057	0.999958	
14691								0.078520	0.040852	9.765065	0.999480	0.031290	-0.007840	-0.031329	0.999498	-0.004813	0.007685	0.005056	0.999958	
14692								0.081387	0.064719	9.774214	0.999480	0.031269	-0.007854	-0.031308	0.999498	-0.004831	0.007699	0.005074	0.999957	
14693								0.065305	0.034884	9.763241	0.999480	0.031271	-0.007845	-0.031310	0.999498	-0.004831	0.007690	0.005074	0.999958	
14694								0.073752	0.046372	9.778330	0.999479	0.031302	-0.007862	-0.031341	0.999497	-0.004807	0.007707	0.005051	0.999958	
14695								0.090694	0.048789	9.766890	0.999480	0.031271	-0.007847	-0.031309	0.999498	-0.004802	0.007693	0.005045	0.999958	
14696								0.072020	0.054584	9.759124	0.999480	0.031283	-0.007852	-0.031322	0.999498	-0.004822	0.007698	0.005065	0.999958	
14697								0.094503	0.044983	9.753626	0.999480	0.031287	-0.007846	-0.031325	0.999498	-0.004806	0.007692	0.005049	0.999958	
14698								0.067292	0.059687	9.772389	0.999479	0.031300	-0.007840	-0.031338	0.999497	-0.004808	0.007686	0.005051	0.999958	
14699								0.085447	0.054513	9.780157	0.999480	0.031286	-0.007832	-0.031324	0.999498	-0.004790	0.007678	0.005033	0.999958	
14700								0.085296	0.054753	9.780157	0.999480	0.031267	-0.007849	-0.031305	0.999498	-0.004793	0.007695	0.005037	0.999958	
14701								0.080966	0.039213	9.751804	0.999480	0.031261	-0.007873	-0.031299	0.999499	-0.004783	0.007720	0.005027	0.999958	
14702								0.058135	0.049268	9.757299	0.999479	0.031301	-0.007860	-0.031339	0.999498	-0.004754	0.007707	0.004998	0.999958	
14703								0.070814	0.056214	9.759124	0.999480	0.031266	-0.007875	-0.031304	0.999499	-0.004754	0.007723	0.004999	0.999958	
14704								0.083385	0.063293	9.760949	0.999479	0.031304	-0.007841	-0.031342	0.999497	-0.004753	0.007689	0.004997	0.999958	
14705								0.077142	0.037040	9.784278	0.999479	0.031313	-0.007864	-0.031351	0.999497	-0.004760	0.007711	0.005004	0.999958	
14706								0.075879	0.045005	9.765068	0.999478	0.031321	-0.007891	-0.031359	0.999497	-0.004752	0.007738	0.004997	0.999958	
14707								0.083130	0.064158	9.760946	0.999479	0.031301	-0.007897	-0.031339	0.999498	-0.004737	0.007745	0.004982	0.999958	
14708								0.071364	0.049971	9.778330	0.999479	0.031300	-0.007888	-0.031338	0.999498	-0.004736	0.007736	0.004980	0.999958	
14709								0.095396	0.071537	9.762771	0.999479	0.031303	-0.007861	-0.031341	0.999497	-0.004748	0.007708	0.004992	0.999958	
14710								0.074921	0.046168	9.765070	0.999480	0.031270	-0.007861	-0.031308	0.999499	-0.004745	0.007709	0.004989	0.999958	
14711								0.074847	0.046519	9.765069	0.999479	0.031292	-0.007887	-0.031330	0.999498	-0.004755	0.007734	0.005000	0.999958	
14712								0.079165	0.062718	9.793414	0.999480	0.031257	-0.007902	-0.031295	0.999499	-0.004756	0.007749	0.005000	0.999957	
14713								0.081918	0.066071	9.760943	0.999480	0.031276	-0.007884	-0.031313	0.999498	-0.004740	0.007732	0.004984	0.999958	
14714								0.078716	0.042855	9.751807	0.999480	0.031270	-0.007904	-0.031308	0.999499	-0.004745	0.007752	0.004990	0.999958	
14715								0.065887	0.056877	9.791587	0.999480	0.031262	-0.007921	-0.031301	0.999499	-0.004764	0.007769	0.005010	0.999957	
14716								0.082938	0.059482	9.780149	0.999480	0.031259	-0.007931	-0.031297	0.999499	-0.004751	0.007778	0.004997	0.999957	
14717								0.065533	0.057548	9.791585	0.999479	0.031278	-0.007906	-0.031316	0.999498	-0.004765	0.007753	0.005011	0.999957	
14718								0.078165	0.044138	9.751805	0.999480	0.031258	-0.007934	-0.031296	0.999499	-0.004723	0.007782	0.004969	0.999957	
14719								0.073767	0.048747	9.765066	0.999481	0.031229	-0.007919	-0.031267	0.999500	-0.004718	0.007768	0.004963	0.999958	
14720								0.073496	0.049106	9.765066	0.999481	0.031211	-0.007919	-0.031249	0.999500	-0.004733	0.007767	0.004978	0.999957	
14721								0.069078	0.053971	9.778325	0.999481	0.031225	-0.007930	-0.031264	0.999500	-0.004723	0.007779	0.004968	0.999957	
14722								0.078913	0.037504	9.771018	0.999480	0.031239	-0.007956	-0.031277	0.999500	-0.004715	0.007805	0.004962	0.999957	
14723								0.064724	0.038658	9.749980	0.999480	0.031252	-0.007964	-0.031290	0.999499	-0.004719	0.007812	0.004966	0.999957	
14724								0.078760	0.038167	9.771016	0.999479	0.031264	-0.007972	-0.031303	0.999499	-0.004724	0.007821	0.004971	0.999957	
14725								0.072796	0.050784	9.765063	0.999480	0.031270	-0.007927	-0.031309	0.999498	-0.004749	0.007775	0.004995	0.999957	
14726								0.099499	0.036792	9.746326	0.999480	0.031232	-0.007957	-0.031270	0.999500	-0.004753	0.007805	0.004999	0.999957	
14727								0.064011	0.040291	9.749978	0.999480	0.031256	-0.007983	-0.031295	0.999499	-0.004762	0.007830	0.005010	0.999957	
14728								0.075582	0.075460	9.774184	0.999480	0.031222	-0.007997	-0.031261	0.999500	-0.004762	0.007845	0.005010	0.999957	
14729								0.086465	0.031036	9.744500	0.999481	0.031211	-0.007971	-0.031249	0.999500	-0.004757	0.007818	0.005004	0.999957	
14730								0.096512	0.073796	9.749492	0.999481	0.031222	-0.007993	-0.031261	0.999500	-0.004765	0.007840	0.005012	0.999957	
14731								0.072017	0.053094	9.765056	0.999481	0.031218	-0.007992	-0.031257	0.999500	-0.004798	0.007838	0.005045	0.999957	
14732								0.071703	0.053560	9.765056	0.999480	0.031238	-0.007971	-0.031277	0.999499	-0.004797	0.007817	0.005044	0.999957	
14733								0.089995	0.048442	9.772839	0.999481	0.031200	-0.008004	-0.031239	0.999500	-0.004785	0.007850	0.005032	0.999957	
14734								0.071454	0.054126	9.765055	0.999482	0.031185	-0.007988	-0.031224	0.999501	-0.004797	0.007835	0.005044	0.999957	
14735								0.088197	0.056655	9.753624	0.999482	0.031176	-0.007965	-0.031214	0.999501	-0.004777	0.007812	0.005023	0.999957	
14736								0.079516	0.066082	9.780135	0.999481	0.031213	-0.008004	-0.031252	0.999500	-0.004806	0.007850	0.005054	0.999956	
14737								0.090513	0.042259	9.792056	0.999482	0.031185	-0.007972	-0.031224	0.999501	-0.004815	0.007818	0.005061	0.999957	
14738								0.083179	0.062311	9.766880	0.999481	0.031205	-0.007954	-0.031244	0.999500	-0.004798	0.007800	0.005044	0.999957	
14739								0.069927	0.055731	9.765057	0.999481	0.031210	-0.007930	-0.031248	0.999500	-0.004796	0.007777	0.005041	0.999957	
14740								0.082394	0.062894	9.766883	0.999481	0.031210	-0.007918	-0.031248	0.999500	-0.004811	0.007764	0.005056	0.999957	
14741								0.077834	0.067747	9.780137	0.999481	0.031227	-0.007914	-0.031266	0.999500	-0.004797	0.007760	0.005042	0.999957	
14742								0.081865	0.042973	9.725296	0.999481	0.031215	-0.007906	-0.031253	0.999500	-0.004780	0.007753	0.005024	0.999957	
14743								0.077541	0.068112	9.780137	0.999481	0.031222	-0.007947	-0.031261	0.999500	-0.004774	0.007794	0.005020	0.999957	
14744								0.074521	0.044913	9.771021	0.999481	0.031223	-0.007938	-0.031261	0.999500	-0.004774	0.007785	0.005019	0.999957	
14745								0.068488	0.057334	9.765058	0.999481	0.031216	-0.007896	-0.031254	0.999500	-0.004766	0.007743	0.005010	0.999957	
14746								0.069418	0.049993	9.784278	0.999482	0.031214	-0.007901	-0.031252	0.999500	-0.004768	0.007749	0.005013	0.999957	
14747								0.062398	0.070032	9.759092	0.999481	0.031212	-0.007910	-0.031250	0.999500	-0.004755	0.007758	0.005000	0.999957	
14748								0.079268	0.072545	9.747665	0.999481	0.031232	-0.007889	-0.031270	0.999500	-0.004754	0.007737	0.004999	0.999958	
14749								0.098750	0.059734	9.774679	0.999481	0.031217	-0.007899	-0.031255	0.999500	-0.004724	0.007747	0.004969	0.999958	
14750								0.067208	0.058429	9.765060	0.999482	0.031220	-0.007875	-0.031258	0.999500	-0.004721	0.007723	0.004965	0.999958	
14751								0.079833	0.065555	9.766886	0.999482	0.031215	-0.007895	-0.031253	0.999500	-0.004727	0.007744	0.004971	0.999958	
14752								0.084076	0.061311	9.753633	0.999481	0.031229	-0.007907	-0.031267	0.999500	-0.004716	0.007755	0.004961	0.999958	
14753								0.082229	0.030460	9.763743	0.999481	0.031232	-0.007897	-0.031269	0.999500	-0.004716	0.007745	0.004961	0.999958	
14754								0.084847	0.054173	9.772855	0.999481	0.031237	-0.007876	-0.031275	0.999500	-0.004698	0.007725	0.004942	0.999958	
14755								0.076096	0.043080	9.757777	0.999481	0.031232	-0.007896	-0.031270	0.999500	-0.004703	0.007745	0.004947	0.999958	
14756								0.084562	0.054763	9.772854	0.999481	0.031215	-0.007899	-0.031253	0.999500	-0.004703	0.007748	0.004947	0.999958	
14757								0.085593	0.047382	9.792077	0.999481	0.031237	-0.007880	-0.031275	0.999500	-0.004687	0.007729	0.004931	0.999958	
14758								0.065596	0.060584	9.765058	0.999481	0.031235	-0.007885	-0.031273	0.999500	-0.004689	0.007735	0.004933	0.999958	
14759								0.074070	0.072282	9.780134	0.999481	0.031230	-0.007906	-0.031267	0.999500	-0.004694	0.007755	0.004939	0.999958	
14760								0.086386	0.040458	9.811300	0.999481	0.031223	-0.007888	-0.031260	0.999500	-0.004643	0.007740	0.004888	0.999958	
14761								0.070748	0.049038	9.771029	0.999481	0.031217	-0.007905	-0.031254	0.999501	-0.004663	0.007756	0.004908	0.999958	
14762								0.077755	0.068394	9.766884	0.999481	0.031222	-0.007881	-0.031259	0.999500	-0.004660	0.007732	0.004904	0.999958	
14763								0.083060	0.056553	9.772857	0.999481	0.031219	-0.007887	-0.031256	0.999501	-0.004662	0.007738	0.004906	0.999958	
14764								0.074268	0.045587	9.757779	0.999482	0.031204	-0.007872	-0.031241	0.999501	-0.004674	0.007722	0.004918	0.999958	
14765								0.065341	0.055103	9.784279	0.999482	0.031204	-0.007860	-0.031241	0.999501	-0.004689	0.007709	0.004933	0.999958	
14766								0.080893	0.065309	9.753634	0.999482	0.031221	-0.007857	-0.031258	0.999500	-0.004676	0.007707	0.004919	0.999958	
14767								0.077472	0.062429	9.786109	0.999483	0.031198	-0.007813	-0.031235	0.999501	-0.004666	0.007663	0.004908	0.999959	
14768								0.080046	0.065607	9.753639	0.999483	0.031202	-0.007810	-0.031239	0.999501	-0.004635	0.007662	0.004877	0.999959	
14769								0.081196	0.058238	9.772863	0.999484	0.031165	-0.007822	-0.031202	0.999502	-0.004651	0.007673	0.004892	0.999959	
14770								0.085317	0.054098	9.759614	0.999483	0.031181	-0.007815	-0.031218	0.999502	-0.004653	0.007666	0.004894	0.999959	
14771								0.076436	0.063581	9.786109	0.999483	0.031197	-0.007805	-0.031234	0.999501	-0.004670	0.007655	0.004911	0.999959	
14772								0.073376	0.040441	9.777009	0.999482	0.031208	-0.007831	-0.031245	0.999501	-0.004661	0.007682	0.004904	0.999958	
14773								0.097670	0.062036	9.761440	0.999483	0.031190	-0.007831	-0.031227	0.999501	-0.004677	0.007681	0.004919	0.999958	
14774								0.080253	0.059978	9.772860	0.999483	0.031196	-0.007814	-0.031233	0.999501	-0.004643	0.007665	0.004885	0.999959	
14775								0.080107	0.060006	9.772861	0.999483	0.031194	-0.007840	-0.031231	0.999502	-0.004618	0.007692	0.004860	0.999959	
14776								0.080034	0.060049	9.772861	0.999483	0.031197	-0.007837	-0.031234	0.999502	-0.004587	0.007690	0.004830	0.999959	
14777								0.079690	0.060269	9.772863	0.999483	0.031201	-0.007809	-0.031238	0.999501	-0.004600	0.007662	0.004841	0.999959	
14778								0.076506	0.037235	9.763766	0.999483	0.031195	-0.007826	-0.031232	0.999501	-0.004619	0.007678	0.004861	0.999959	
14779								0.079288	0.061076	9.772861	0.999483	0.031198	-0.007820	-0.031235	0.999501	-0.004603	0.007672	0.004845	0.999959	
14780								0.087765	0.052260	9.746368	0.999483	0.031193	-0.007840	-0.031230	0.999502	-0.004609	0.007692	0.004851	0.999959	
14781								0.080441	0.054180	9.792085	0.999483	0.031187	-0.007857	-0.031224	0.999502	-0.004629	0.007708	0.004872	0.999958	
14782								0.067438	0.047852	9.790255	0.999482	0.031202	-0.007847	-0.031239	0.999501	-0.004646	0.007698	0.004889	0.999958	
14783								0.082974	0.058129	9.759611	0.999482	0.031203	-0.007838	-0.031240	0.999501	-0.004646	0.007689	0.004888	0.999958	
14784								0.072733	0.075040	9.766874	0.999482	0.031224	-0.007819	-0.031261	0.999501	-0.004630	0.007671	0.004872	0.999959	
14785								0.083649	0.050847	9.778842	0.999482	0.031227	-0.007817	-0.031264	0.999501	-0.004600	0.007669	0.004842	0.999959	
14786								0.070637	0.044194	9.777013	0.999482	0.031225	-0.007822	-0.031261	0.999501	-0.004603	0.007675	0.004845	0.999959	
14787								0.083249	0.051346	9.778843	0.999482	0.031226	-0.007813	-0.031263	0.999501	-0.004602	0.007665	0.004844	0.999959	
14788								0.074389	0.040292	9.763770	0.999481	0.031261	-0.007794	-0.031298	0.999499	-0.004604	0.007646	0.004845	0.999959	
14789								0.082579	0.051895	9.778846	0.999481	0.031249	-0.007785	-0.031285	0.999500	-0.004586	0.007638	0.004827	0.999959	
14790								0.076837	0.064197	9.772860	0.999482	0.031230	-0.007806	-0.031266	0.999501	-0.004573	0.007659	0.004815	0.999959	
14791								0.085378	0.055467	9.746372	0.999481	0.031242	-0.007811	-0.031278	0.999500	-0.004593	0.007663	0.004835	0.999959	
14792								0.076477	0.065081	9.772857	0.999482	0.031210	-0.007789	-0.031247	0.999501	-0.004620	0.007641	0.004861	0.999959	
14793								0.063383	0.058705	9.771026	0.999482	0.031224	-0.007797	-0.031260	0.999501	-0.004624	0.007649	0.004865	0.999959	
14794								0.086073	0.049140	9.765601	0.999481	0.031230	-0.007854	-0.031268	0.999499	-0.004812	0.007700	0.005055	0.999958	
14795								0.080455	0.061543	9.759611	0.999482	0.031209	-0.007872	-0.031247	0.999500	-0.004815	0.007717	0.005058	0.999957	
14796								0.077320	0.038342	9.750527	0.999482	0.031215	-0.007847	-0.031253	0.999500	-0.004812	0.007693	0.005055	0.999958	
14797								0.068296	0.047644	9.777014	0.999481	0.031237	-0.007829	-0.031275	0.999499	-0.004796	0.007675	0.005038	0.999958	
14798								0.088075	0.073695	9.774686	0.999481	0.031234	-0.007834	-0.031272	0.999499	-0.004798	0.007680	0.005041	0.999958	
14799								0.067818	0.048212	9.777014	0.999481	0.031237	-0.007825	-0.031275	0.999499	-0.004798	0.007671	0.005041	0.999958	
14800								0.062059	0.060680	9.771023	0.999481	0.031232	-0.007845	-0.031270	0.999499	-0.004803	0.007691	0.005046	0.999958	
14801								0.090355	0.038978	9.771593	0.999482	0.031216	-0.007851	-0.031254	0.999500	-0.004788	0.007698	0.005031	0.999958	
14802								0.074603	0.068021	9.772852	0.999482	0.031218	-0.007842	-0.031256	0.999500	-0.004788	0.007689	0.005031	0.999958	
14803								0.084432	0.051549	9.765602	0.999481	0.031233	-0.007872	-0.031271	0.999500	-0.004765	0.007719	0.005009	0.999958	
14804								0.088637	0.047195	9.752362	0.999482	0.031216	-0.007860	-0.031254	0.999500	-0.004763	0.007707	0.005006	0.999958	
14805								0.072427	0.037594	9.783007	0.999482	0.031221	-0.007836	-0.031258	0.999500	-0.004761	0.007683	0.005003	0.999958	
14806								0.069472	0.052971	9.744541	0.999482	0.031207	-0.007827	-0.031245	0.999501	-0.004743	0.007675	0.004986	0.999958	
14807								0.101851	0.047116	9.773432	0.999482	0.031220	-0.007838	-0.031258	0.999500	-0.004733	0.007686	0.004976	0.999958	
14808								0.064810	0.057973	9.757781	0.999481	0.031248	-0.007834	-0.031286	0.999499	-0.004738	0.007682	0.004981	0.999958	
14809								0.095834	0.059928	9.767438	0.999482	0.031215	-0.007831	-0.031253	0.999500	-0.004751	0.007679	0.004993	0.999958	
14810								0.078453	0.057927	9.778846	0.999482	0.031219	-0.007825	-0.031256	0.999500	-0.004736	0.007674	0.004978	0.999958	
14811								0.078241	0.058164	9.778846	0.999482	0.031202	-0.007828	-0.031240	0.999501	-0.004737	0.007677	0.004979	0.999958	
14812								0.095066	0.060748	9.767440	0.999483	0.031192	-0.007802	-0.031230	0.999501	-0.004732	0.007650	0.004973	0.999958	
14813								0.076152	0.066356	9.759614	0.999484	0.031179	-0.007771	-0.031217	0.999501	-0.004742	0.007620	0.004983	0.999959	
14814								0.064473	0.052128	9.777017	0.999482	0.031225	-0.007809	-0.031262	0.999500	-0.004709	0.007658	0.004951	0.999958	
14815								0.077357	0.059134	9.778848	0.999483	0.031186	-0.007824	-0.031224	0.999501	-0.004710	0.007673	0.004952	0.999958	
14816								0.075989	0.066980	9.759611	0.999482	0.031199	-0.007835	-0.031236	0.999501	-0.004700	0.007685	0.004942	0.999958	
14817								0.104181	0.045294	9.760201	0.999482	0.031202	-0.007826	-0.031239	0.999501	-0.004700	0.007675	0.004942	0.999958	
14818								0.062847	0.060740	9.757777	0.999482	0.031212	-0.007849	-0.031249	0.999501	-0.004707	0.007698	0.004950	0.999958	
14819								0.072781	0.044522	9.750536	0.999482	0.031201	-0.007866	-0.031239	0.999501	-0.004728	0.007714	0.004971	0.999958	
14820								0.086670	0.064725	9.813146	0.999482	0.031218	-0.007874	-0.031255	0.999500	-0.004733	0.007723	0.004977	0.999958	
14821								0.081109	0.056571	9.765603	0.999481	0.031233	-0.007889	-0.031271	0.999500	-0.004708	0.007738	0.004952	0.999958	
14822								0.081011	0.056774	9.765602	0.999481	0.031229	-0.007895	-0.031267	0.999500	-0.004710	0.007744	0.004955	0.999958	
14823								0.076600	0.041125	9.737298	0.999482	0.031200	-0.007880	-0.031237	0.999501	-0.004705	0.007730	0.004949	0.999958	
14824								0.080521	0.057456	9.765603	0.999482	0.031212	-0.007885	-0.031250	0.999500	-0.004725	0.007734	0.004969	0.999958	
14825								0.093112	0.064718	9.767434	0.999482	0.031216	-0.007876	-0.031254	0.999500	-0.004725	0.007725	0.004969	0.999958	
14826								0.081337	0.050538	9.784841	0.999481	0.031235	-0.007873	-0.031272	0.999500	-0.004712	0.007722	0.004956	0.999958	
14827								0.066968	0.051415	9.763772	0.999482	0.031222	-0.007865	-0.031260	0.999500	-0.004694	0.007714	0.004937	0.999958	
14828								0.085144	0.046299	9.771608	0.999481	0.031225	-0.007858	-0.031263	0.999500	-0.004679	0.007708	0.004922	0.999958	
14829								0.052306	0.052497	9.742702	0.999482	0.031209	-0.007847	-0.031246	0.999501	-0.004677	0.007697	0.004920	0.999958	
14830								0.096043	0.061307	9.754204	0.999483	0.031192	-0.007831	-0.031230	0.999501	-0.004690	0.007681	0.004932	0.999958	
14831								0.070263	0.048013	9.750538	0.999482	0.031218	-0.007857	-0.031256	0.999500	-0.004700	0.007706	0.004943	0.999958	
14832								0.074348	0.064012	9.778840	0.999483	0.031192	-0.007855	-0.031229	0.999502	-0.004634	0.007707	0.004877	0.999958	
14833								0.079742	0.051797	9.784848	0.999483	0.031178	-0.007847	-0.031215	0.999502	-0.004617	0.007699	0.004859	0.999959	
14834								0.065377	0.052667	9.763776	0.999483	0.031195	-0.007843	-0.031232	0.999502	-0.004604	0.007695	0.004846	0.999959	
14835								0.087881	0.043194	9.758381	0.999482	0.031211	-0.007833	-0.031248	0.999501	-0.004621	0.007685	0.004863	0.999959	
14836								0.077637	0.060264	9.765609	0.999482	0.031228	-0.007826	-0.031265	0.999500	-0.004623	0.007678	0.004866	0.999959	
14837								0.064679	0.053739	9.763775	0.999482	0.031207	-0.007844	-0.031244	0.999501	-0.004627	0.007696	0.004869	0.999959	
14838								0.082956	0.048898	9.771614	0.999482	0.031224	-0.007834	-0.031261	0.999500	-0.004644	0.007685	0.004887	0.999959	
14839								0.081291	0.077150	9.793907	0.999482	0.031210	-0.007847	-0.031247	0.999501	-0.004599	0.007699	0.004842	0.999959	
14840								0.074146	0.058392	9.798080	0.999482	0.031218	-0.007881	-0.031255	0.999501	-0.004625	0.007733	0.004869	0.999958	
14841								0.087048	0.045170	9.758379	0.999482	0.031205	-0.007869	-0.031242	0.999501	-0.004622	0.007721	0.004866	0.999958	
14842								0.071149	0.074243	9.759595	0.999482	0.031206	-0.007860	-0.031243	0.999501	-0.004622	0.007712	0.004865	0.999958	
14843								0.080855	0.057825	9.752372	0.999482	0.031222	-0.007856	-0.031258	0.999501	-0.004610	0.007708	0.004853	0.999959	
14844								0.069171	0.043668	9.769781	0.999481	0.031235	-0.007864	-0.031272	0.999500	-0.004615	0.007716	0.004858	0.999958	
14845								0.086244	0.046436	9.758381	0.999481	0.031243	-0.007884	-0.031280	0.999500	-0.004638	0.007735	0.004882	0.999958	
14846								0.076170	0.063512	9.765600	0.999482	0.031211	-0.007884	-0.031248	0.999501	-0.004636	0.007736	0.004880	0.999958	
14847								0.086013	0.046930	9.758380	0.999482	0.031197	-0.007897	-0.031234	0.999502	-0.004590	0.007750	0.004835	0.999958	
14848								0.071741	0.068363	9.778830	0.999482	0.031203	-0.007931	-0.031240	0.999501	-0.004616	0.007783	0.004861	0.999958	
14849								0.091538	0.035378	9.764391	0.999482	0.031192	-0.007908	-0.031229	0.999502	-0.004596	0.007761	0.004840	0.999958	
14850								0.088320	0.071225	9.767433	0.999482	0.031212	-0.007886	-0.031249	0.999501	-0.004596	0.007739	0.004840	0.999958	
14851								0.075181	0.064585	9.765601	0.999482	0.031215	-0.007881	-0.031252	0.999501	-0.004581	0.007734	0.004825	0.999958	
14852								0.080566	0.052636	9.771615	0.999482	0.031218	-0.007875	-0.031254	0.999501	-0.004566	0.007728	0.004809	0.999959	
14853								0.066357	0.053425	9.750537	0.999482	0.031199	-0.007899	-0.031236	0.999502	-0.004538	0.007753	0.004783	0.999959	
14854								0.080293	0.052929	9.771616	0.999481	0.031235	-0.007880	-0.031271	0.999501	-0.004540	0.007734	0.004784	0.999959	
14855								0.074380	0.065454	9.765601	0.999481	0.031248	-0.007885	-0.031284	0.999500	-0.004561	0.007738	0.004805	0.999959	
14856								0.079910	0.053537	9.771616	0.999481	0.031234	-0.007898	-0.031270	0.999501	-0.004515	0.007753	0.004760	0.999959	
14857								0.074166	0.065749	9.765601	0.999481	0.031231	-0.007903	-0.031267	0.999501	-0.004518	0.007758	0.004763	0.999959	
14858								0.075177	0.058501	9.784846	0.999481	0.031234	-0.007879	-0.031270	0.999501	-0.004516	0.007734	0.004760	0.999959	
14859								0.079275	0.054123	9.771617	0.999480	0.031250	-0.007894	-0.031286	0.999500	-0.004491	0.007749	0.004735	0.999959	
14860								0.076287	0.030775	9.762571	0.999480	0.031250	-0.007884	-0.031286	0.999500	-0.004491	0.007740	0.004735	0.999959	
14861								0.090341	0.068892	9.754208	0.999481	0.031240	-0.007879	-0.031275	0.999501	-0.004458	0.007736	0.004703	0.999959	
14862								0.078712	0.054723	9.771619	0.999480	0.031249	-0.007899	-0.031285	0.999500	-0.004481	0.007755	0.004726	0.999959	
14863								0.078582	0.055171	9.771617	0.999479	0.031281	-0.007895	-0.031317	0.999499	-0.004485	0.007751	0.004730	0.999959	
14864								0.072787	0.067389	9.765600	0.999480	0.031267	-0.007907	-0.031303	0.999500	-0.004440	0.007765	0.004686	0.999959	
14865								0.078173	0.055348	9.771620	0.999480	0.031257	-0.007881	-0.031292	0.999500	-0.004436	0.007738	0.004680	0.999959	
14866								0.094955	0.057971	9.760228	0.999480	0.031272	-0.007875	-0.031308	0.999500	-0.004438	0.007732	0.004682	0.999959	
14867								0.077539	0.055874	9.771622	0.999480	0.031260	-0.007866	-0.031296	0.999500	-0.004420	0.007724	0.004664	0.999959	
14868								0.073046	0.060764	9.784848	0.999480	0.031269	-0.007885	-0.031305	0.999500	-0.004443	0.007742	0.004688	0.999959	
14869								0.064325	0.049968	9.769784	0.999480	0.031287	-0.007854	-0.031323	0.999499	-0.004488	0.007710	0.004732	0.999959	
14870								0.081131	0.052618	9.758393	0.999479	0.031306	-0.007857	-0.031342	0.999499	-0.004445	0.007714	0.004689	0.999959	
14871								0.076746	0.057376	9.771619	0.999479	0.031282	-0.007887	-0.031318	0.999500	-0.004466	0.007743	0.004711	0.999959	
14872								0.082303	0.045518	9.777640	0.999480	0.031255	-0.007879	-0.031290	0.999501	-0.004431	0.007737	0.004675	0.999959	
14873								0.080744	0.053128	9.758394	0.999480	0.031257	-0.007873	-0.031292	0.999501	-0.004417	0.007731	0.004661	0.999959	
14874								0.063327	0.051027	9.769785	0.999480	0.031259	-0.007864	-0.031294	0.999500	-0.004417	0.007722	0.004660	0.999959	
14875								0.081573	0.046065	9.777644	0.999480	0.031257	-0.007872	-0.031292	0.999501	-0.004405	0.007730	0.004649	0.999959	
14876								0.075724	0.058413	9.771621	0.999480	0.031258	-0.007862	-0.031293	0.999501	-0.004405	0.007721	0.004648	0.999959	
14877								0.074068	0.066164	9.752373	0.999481	0.031248	-0.007839	-0.031283	0.999501	-0.004385	0.007698	0.004628	0.999960	
14878								0.103531	0.036983	9.772283	0.999481	0.031245	-0.007844	-0.031280	0.999501	-0.004388	0.007703	0.004631	0.999960	
14879								0.056485	0.064471	9.763761	0.999481	0.031256	-0.007848	-0.031291	0.999501	-0.004409	0.007707	0.004652	0.999959	
14880								0.084680	0.042774	9.764423	0.999481	0.031247	-0.007831	-0.031282	0.999501	-0.004358	0.007691	0.004601	0.999960	
14881								0.078854	0.054961	9.758399	0.999481	0.031242	-0.007851	-0.031277	0.999501	-0.004364	0.007711	0.004607	0.999960	
14882								0.073198	0.067424	9.752371	0.999481	0.031237	-0.007871	-0.031272	0.999501	-0.004369	0.007731	0.004613	0.999959	
