// Start Time: Unknown: 
// Update Rate: 60.0Hz 
// Filter Profile: human (46.1) 
// Firmware Version: 4.6.0
PacketCounter	SampleTimeFine	Year	Month	Day	Second	UTC_Nano	UTC_Year	UTC_Month	UTC_Day	UTC_Hour	UTC_Minute	UTC_Second	UTC_Valid	Acc_X	Acc_Y	Acc_Z	Mat[1][1]	Mat[2][1]	Mat[3][1]	Mat[1][2]	Mat[2][2]	Mat[3][2]	Mat[1][3]	Mat[2][3]	Mat[3][3] 
3598														-0.070524	0.081839	9.746998	-0.869458	0.493870	-0.011621	-0.493924	-0.869502	0.002144	-0.009046	0.007604	0.999930	
3599														-0.084460	0.095553	9.776811	-0.869464	0.493860	-0.011617	-0.493914	-0.869508	0.002138	-0.009045	0.007596	0.999930	
3600														-0.084319	0.066417	9.747072	-0.869433	0.493915	-0.011599	-0.493969	-0.869477	0.002140	-0.009028	0.007590	0.999930	
3601														-0.098917	0.080584	9.747598	-0.869446	0.493892	-0.011621	-0.493945	-0.869490	0.002119	-0.009058	0.007583	0.999930	
3602														-0.083492	0.094355	9.791470	-0.869453	0.493879	-0.011622	-0.493933	-0.869498	0.002092	-0.009072	0.007559	0.999930	
3603														-0.083788	0.094507	9.762188	-0.869452	0.493880	-0.011612	-0.493934	-0.869497	0.002107	-0.009056	0.007568	0.999930	
3604														-0.098285	0.094402	9.747844	-0.869452	0.493882	-0.011603	-0.493936	-0.869496	0.002122	-0.009040	0.007576	0.999930	
3605														-0.081973	0.078808	9.805898	-0.869442	0.493898	-0.011612	-0.493952	-0.869487	0.002109	-0.009055	0.007569	0.999930	
3606														-0.097359	0.079009	9.762266	-0.869433	0.493914	-0.011620	-0.493967	-0.869478	0.002096	-0.009069	0.007562	0.999930	
3607														-0.082164	0.064094	9.776385	-0.869439	0.493903	-0.011650	-0.493957	-0.869484	0.002088	-0.009099	0.007570	0.999930	
3608														-0.081643	0.063489	9.791033	-0.869437	0.493908	-0.011618	-0.493961	-0.869482	0.002063	-0.009083	0.007532	0.999930	
3609														-0.082078	0.092940	9.762218	-0.869435	0.493911	-0.011603	-0.493964	-0.869480	0.002098	-0.009052	0.007556	0.999930	
3610														-0.096170	0.077887	9.762287	-0.869427	0.493926	-0.011604	-0.493979	-0.869471	0.002072	-0.009066	0.007534	0.999931	
3611														-0.081182	0.092264	9.776870	-0.869425	0.493929	-0.011615	-0.493982	-0.869469	0.002092	-0.009066	0.007557	0.999930	
3612														-0.095349	0.077209	9.776939	-0.869423	0.493933	-0.011603	-0.493986	-0.869468	0.002073	-0.009065	0.007534	0.999931	
3613														-0.094751	0.076603	9.791588	-0.869429	0.493922	-0.011599	-0.493975	-0.869473	0.002066	-0.009064	0.007526	0.999931	
3614														-0.080156	0.062380	9.761773	-0.869421	0.493936	-0.011589	-0.493989	-0.869465	0.002082	-0.009048	0.007535	0.999931	
3615														-0.080266	0.077034	9.747369	-0.869419	0.493940	-0.011585	-0.493993	-0.869464	0.002076	-0.009047	0.007528	0.999931	
3616														-0.093377	0.061284	9.791370	-0.869424	0.493931	-0.011562	-0.493984	-0.869469	0.002098	-0.009017	0.007535	0.999931	
3617														-0.093793	0.076243	9.762323	-0.869415	0.493946	-0.011579	-0.494000	-0.869460	0.002098	-0.009031	0.007544	0.999931	
3618														-0.108519	0.076061	9.747984	-0.869429	0.493922	-0.011574	-0.493975	-0.869473	0.002091	-0.009031	0.007536	0.999931	
3619														-0.063307	0.075848	9.791015	-0.869427	0.493925	-0.011580	-0.493979	-0.869471	0.002132	-0.009015	0.007574	0.999931	
3620														-0.077580	0.075660	9.791319	-0.869426	0.493927	-0.011584	-0.493980	-0.869470	0.002140	-0.009015	0.007583	0.999931	
3621														-0.077586	0.075593	9.776681	-0.869425	0.493929	-0.011572	-0.493982	-0.869469	0.002121	-0.009014	0.007561	0.999931	
3622														-0.105707	0.059658	9.806342	-0.869424	0.493933	-0.011547	-0.493986	-0.869468	0.002110	-0.008998	0.007538	0.999931	
3623														-0.091412	0.074581	9.776997	-0.869437	0.493909	-0.011530	-0.493962	-0.869481	0.002111	-0.008983	0.007531	0.999931	
3624														-0.091758	0.089155	9.762595	-0.869450	0.493886	-0.011566	-0.493939	-0.869494	0.002082	-0.009028	0.007523	0.999931	
3625														-0.105641	0.088120	9.792191	-0.869441	0.493902	-0.011541	-0.493955	-0.869485	0.002070	-0.009012	0.007500	0.999931	
3626														-0.091360	0.073997	9.747724	-0.869439	0.493905	-0.011536	-0.493958	-0.869483	0.002064	-0.009011	0.007493	0.999931	
3627														-0.076371	0.088222	9.762308	-0.869444	0.493896	-0.011538	-0.493948	-0.869489	0.002037	-0.009026	0.007471	0.999931	
3628														-0.105053	0.087307	9.777566	-0.869436	0.493912	-0.011528	-0.493964	-0.869480	0.002052	-0.009010	0.007479	0.999931	
3629														-0.089963	0.087347	9.777267	-0.869442	0.493901	-0.011518	-0.493954	-0.869486	0.002067	-0.008994	0.007486	0.999932	
3630														-0.089530	0.058069	9.762147	-0.869433	0.493917	-0.011514	-0.493969	-0.869477	0.002061	-0.008993	0.007480	0.999932	
3631														-0.074466	0.072442	9.776729	-0.869447	0.493893	-0.011517	-0.493945	-0.869491	0.002068	-0.008993	0.007487	0.999932	
3632														-0.074359	0.086933	9.776974	-0.869453	0.493881	-0.011521	-0.493934	-0.869497	0.002076	-0.008992	0.007495	0.999931	
3633														-0.088707	0.086516	9.777286	-0.869452	0.493884	-0.011517	-0.493936	-0.869496	0.002070	-0.008992	0.007489	0.999932	
3634														-0.081268	0.082859	9.773413	-0.869454	0.493879	-0.011534	-0.493932	-0.869498	0.002070	-0.009006	0.007496	0.999931	
3635														-0.073829	0.079202	9.769540	-0.869456	0.493875	-0.011550	-0.493928	-0.869501	0.002070	-0.009021	0.007504	0.999931	
3636														-0.073471	0.086180	9.776987	-0.869447	0.493891	-0.011554	-0.493944	-0.869491	0.002077	-0.009020	0.007513	0.999931	
3637														-0.073559	0.086195	9.762347	-0.869445	0.493895	-0.011563	-0.493947	-0.869489	0.002063	-0.009035	0.007506	0.999931	
3638														-0.101936	0.056056	9.777126	-0.869436	0.493911	-0.011566	-0.493964	-0.869480	0.002071	-0.009034	0.007514	0.999931	
3639														-0.101513	0.070237	9.792017	-0.869441	0.493901	-0.011562	-0.493953	-0.869486	0.002065	-0.009033	0.007506	0.999931	
3640														-0.087273	0.070608	9.762426	-0.869440	0.493903	-0.011571	-0.493956	-0.869484	0.002051	-0.009048	0.007499	0.999931	
3641														-0.072593	0.085299	9.762362	-0.869423	0.493932	-0.011582	-0.493985	-0.869468	0.002072	-0.009047	0.007523	0.999931	
3642														-0.086940	0.084956	9.762677	-0.869437	0.493909	-0.011578	-0.493961	-0.869481	0.002066	-0.009046	0.007515	0.999931	
3643														-0.100661	0.084053	9.792279	-0.869435	0.493911	-0.011581	-0.493964	-0.869480	0.002073	-0.009046	0.007523	0.999931	
3644														-0.100677	0.083994	9.777641	-0.869505	0.493788	-0.011558	-0.493842	-0.869549	0.002142	-0.008993	0.007571	0.999931	
3645														-0.100620	0.083862	9.763005	-0.869505	0.493790	-0.011541	-0.493843	-0.869548	0.002144	-0.008977	0.007564	0.999931	
3646														-0.100301	0.069160	9.748123	-0.869513	0.493775	-0.011524	-0.493828	-0.869557	0.002146	-0.008961	0.007557	0.999931	
3647														-0.084843	0.083140	9.777349	-0.869514	0.493775	-0.011512	-0.493828	-0.869557	0.002127	-0.008960	0.007535	0.999931	
3648														-0.084511	0.097413	9.777604	-0.869513	0.493776	-0.011468	-0.493829	-0.869557	0.002145	-0.008913	0.007528	0.999932	
3649														-0.084128	0.053594	9.747582	-0.869506	0.493789	-0.011469	-0.493841	-0.869550	0.002119	-0.008927	0.007506	0.999932	
3650														-0.083700	0.067699	9.762477	-0.869494	0.493811	-0.011460	-0.493864	-0.869537	0.002134	-0.008911	0.007515	0.999932	
3651														-0.083199	0.081726	9.777375	-0.869498	0.493803	-0.011441	-0.493855	-0.869542	0.002101	-0.008911	0.007477	0.999932	
3652														-0.097397	0.081080	9.777699	-0.869501	0.493800	-0.011411	-0.493852	-0.869543	0.002110	-0.008880	0.007470	0.999933	
3653														-0.082158	0.080977	9.777390	-0.869501	0.493800	-0.011380	-0.493852	-0.869543	0.002120	-0.008849	0.007463	0.999933	
3654														-0.096806	0.066330	9.748178	-0.869498	0.493805	-0.011376	-0.493857	-0.869541	0.002114	-0.008848	0.007456	0.999933	
3655														-0.082323	0.095518	9.748366	-0.869496	0.493809	-0.011385	-0.493861	-0.869539	0.002101	-0.008862	0.007449	0.999933	
3656														-0.094943	0.079213	9.821652	-0.869501	0.493800	-0.011388	-0.493852	-0.869544	0.002108	-0.008862	0.007457	0.999933	
3657														-0.081423	0.065776	9.747871	-0.869500	0.493802	-0.011384	-0.493853	-0.869543	0.002102	-0.008861	0.007450	0.999933	
3658														-0.095522	0.065104	9.762837	-0.869505	0.493792	-0.011402	-0.493844	-0.869548	0.002101	-0.008877	0.007458	0.999933	
3659														-0.079708	0.078726	9.821343	-0.869513	0.493778	-0.011424	-0.493830	-0.869556	0.002080	-0.008907	0.007450	0.999933	
3660														-0.095423	0.079218	9.763096	-0.869518	0.493770	-0.011407	-0.493821	-0.869561	0.002082	-0.008891	0.007443	0.999933	
3661														-0.095304	0.079240	9.748460	-0.869527	0.493754	-0.011397	-0.493806	-0.869569	0.002097	-0.008875	0.007451	0.999933	
3662														-0.094489	0.064196	9.762853	-0.869518	0.493770	-0.011414	-0.493821	-0.869561	0.002097	-0.008889	0.007460	0.999933	
3663														-0.079230	0.107359	9.807225	-0.869517	0.493771	-0.011410	-0.493823	-0.869560	0.002091	-0.008889	0.007453	0.999933	
3664														-0.108805	0.078194	9.763437	-0.869507	0.493789	-0.011413	-0.493840	-0.869550	0.002099	-0.008888	0.007462	0.999933	
3665														-0.093474	0.048881	9.762611	-0.869503	0.493795	-0.011409	-0.493847	-0.869546	0.002094	-0.008887	0.007455	0.999933	
3666														-0.079772	0.093216	9.733772	-0.869516	0.493772	-0.011405	-0.493824	-0.869559	0.002088	-0.008887	0.007448	0.999933	
3667														-0.078974	0.092486	9.763061	-0.869515	0.493774	-0.011435	-0.493826	-0.869558	0.002080	-0.008916	0.007456	0.999932	
3668														-0.092547	0.076988	9.792417	-0.869511	0.493781	-0.011426	-0.493833	-0.869554	0.002096	-0.008901	0.007465	0.999933	
3669														-0.093289	0.063122	9.733596	-0.869518	0.493769	-0.011422	-0.493821	-0.869561	0.002090	-0.008900	0.007457	0.999933	
3670														-0.078161	0.091810	9.763074	-0.869516	0.493773	-0.011431	-0.493825	-0.869559	0.002076	-0.008915	0.007450	0.999933	
3671														-0.091536	0.061586	9.792174	-0.869531	0.493746	-0.011434	-0.493798	-0.869574	0.002083	-0.008914	0.007458	0.999932	
3672														-0.107261	0.091129	9.749090	-0.869523	0.493761	-0.011422	-0.493813	-0.869566	0.002065	-0.008913	0.007436	0.999933	
3673														-0.091850	0.061747	9.748256	-0.869515	0.493775	-0.011412	-0.493826	-0.869558	0.002080	-0.008896	0.007444	0.999933	
3674														-0.090955	0.089981	9.792705	-0.869505	0.493793	-0.011413	-0.493844	-0.869548	0.002054	-0.008910	0.007422	0.999933	
3675														-0.091061	0.090011	9.778066	-0.869502	0.493797	-0.011425	-0.493849	-0.869545	0.002075	-0.008910	0.007446	0.999933	
3676														-0.076330	0.075745	9.762841	-0.869507	0.493788	-0.011441	-0.493840	-0.869550	0.002074	-0.008925	0.007454	0.999932	
3677														-0.104733	0.074531	9.792784	-0.869499	0.493802	-0.011430	-0.493854	-0.869543	0.002056	-0.008923	0.007432	0.999933	
3678														-0.075346	0.089357	9.792394	-0.869506	0.493790	-0.011441	-0.493842	-0.869549	0.002077	-0.008923	0.007456	0.999932	
3679														-0.089809	0.060075	9.762924	-0.869498	0.493805	-0.011395	-0.493856	-0.869541	0.002061	-0.008891	0.007419	0.999933	
3680														-0.104533	0.074403	9.748877	-0.869490	0.493820	-0.011398	-0.493871	-0.869533	0.002069	-0.008890	0.007428	0.999933	
3681														-0.074740	0.088901	9.763127	-0.869496	0.493810	-0.011374	-0.493861	-0.869539	0.002057	-0.008874	0.007406	0.999933	
3682														-0.088689	0.059109	9.762940	-0.869488	0.493822	-0.011390	-0.493874	-0.869531	0.002057	-0.008888	0.007414	0.999933	
3683														-0.074096	0.073732	9.762874	-0.869494	0.493813	-0.011399	-0.493864	-0.869537	0.002044	-0.008903	0.007407	0.999933	
3684														-0.088718	0.087870	9.763470	-0.869499	0.493804	-0.011396	-0.493855	-0.869542	0.002038	-0.008903	0.007400	0.999933	
3685														-0.088556	0.073108	9.748571	-0.869496	0.493809	-0.011384	-0.493860	-0.869539	0.002019	-0.008902	0.007378	0.999933	
3686														-0.087862	0.086788	9.778125	-0.869494	0.493812	-0.011386	-0.493863	-0.869537	0.001992	-0.008917	0.007355	0.999933	
3687														-0.087849	0.072177	9.763222	-0.869495	0.493810	-0.011410	-0.493861	-0.869539	0.002006	-0.008931	0.007379	0.999933	
3688														-0.087960	0.072064	9.748585	-0.869487	0.493824	-0.011383	-0.493874	-0.869531	0.001961	-0.008929	0.007327	0.999933	
3689														-0.086839	0.071024	9.777877	-0.869487	0.493825	-0.011352	-0.493876	-0.869530	0.001971	-0.008897	0.007320	0.999934	
3690														-0.086319	0.070799	9.777883	-0.869492	0.493817	-0.011343	-0.493867	-0.869535	0.001986	-0.008882	0.007328	0.999934	
3691														-0.100456	0.084749	9.793130	-0.869499	0.493805	-0.011338	-0.493855	-0.869542	0.001980	-0.008882	0.007321	0.999934	
3692														-0.086455	0.085513	9.748875	-0.869498	0.493807	-0.011329	-0.493857	-0.869541	0.001995	-0.008866	0.007330	0.999934	
3693														-0.071313	0.070703	9.748279	-0.869494	0.493813	-0.011323	-0.493863	-0.869538	0.001955	-0.008881	0.007292	0.999934	
3694														-0.100038	0.069727	9.763595	-0.869493	0.493816	-0.011335	-0.493866	-0.869536	0.001976	-0.008880	0.007316	0.999934	
3695														-0.085352	0.098926	9.763801	-0.869491	0.493819	-0.011290	-0.493869	-0.869534	0.001959	-0.008849	0.007279	0.999934	
3696														-0.085384	0.084434	9.734257	-0.869499	0.493806	-0.011293	-0.493856	-0.869541	0.001967	-0.008849	0.007287	0.999934	
3697														-0.112952	0.053708	9.778324	-0.869511	0.493784	-0.011289	-0.493833	-0.869554	0.001961	-0.008848	0.007279	0.999934	
3698														-0.084181	0.068921	9.748641	-0.869518	0.493773	-0.011264	-0.493823	-0.869560	0.001949	-0.008832	0.007257	0.999935	
3699														-0.083598	0.083002	9.763558	-0.869518	0.493773	-0.011254	-0.493823	-0.869560	0.001965	-0.008816	0.007266	0.999935	
3700														-0.097527	0.082378	9.778543	-0.869514	0.493780	-0.011258	-0.493829	-0.869557	0.001972	-0.008816	0.007275	0.999935	
3701														-0.082448	0.096668	9.793122	-0.869513	0.493782	-0.011247	-0.493831	-0.869556	0.001953	-0.008815	0.007253	0.999935	
3702														-0.097072	0.067398	9.763641	-0.869519	0.493771	-0.011251	-0.493820	-0.869562	0.001960	-0.008815	0.007261	0.999935	
3703														-0.096431	0.066908	9.778288	-0.869510	0.493788	-0.011247	-0.493837	-0.869552	0.001955	-0.008814	0.007254	0.999935	
3704														-0.081917	0.081463	9.778222	-0.869507	0.493791	-0.011283	-0.493840	-0.869550	0.001927	-0.008859	0.007247	0.999934	
3705														-0.097158	0.096353	9.749553	-0.869514	0.493780	-0.011262	-0.493829	-0.869557	0.001983	-0.008814	0.007286	0.999935	
3706														-0.081318	0.066857	9.763317	-0.869521	0.493768	-0.011263	-0.493817	-0.869563	0.001957	-0.008828	0.007263	0.999935	
3707														-0.081505	0.095772	9.763865	-0.869513	0.493781	-0.011258	-0.493830	-0.869556	0.001951	-0.008826	0.007257	0.999935	
3708														-0.081143	0.066526	9.748683	-0.869519	0.493771	-0.011262	-0.493821	-0.869561	0.001959	-0.008826	0.007265	0.999935	
3709														-0.079809	0.065497	9.792613	-0.869518	0.493773	-0.011258	-0.493822	-0.869561	0.001953	-0.008825	0.007258	0.999935	
3710														-0.094706	0.079972	9.778591	-0.869517	0.493775	-0.011261	-0.493824	-0.869559	0.001961	-0.008824	0.007266	0.999935	
3711														-0.079980	0.065434	9.763337	-0.869515	0.493779	-0.011255	-0.493828	-0.869558	0.001921	-0.008839	0.007228	0.999935	
3712														-0.094608	0.079639	9.763958	-0.869520	0.493769	-0.011274	-0.493819	-0.869563	0.001954	-0.008839	0.007267	0.999935	
3713														-0.094098	0.093712	9.778881	-0.869527	0.493758	-0.011234	-0.493807	-0.869569	0.001916	-0.008822	0.007213	0.999935	
3714														-0.079083	0.093402	9.778545	-0.869525	0.493762	-0.011230	-0.493811	-0.869567	0.001911	-0.008822	0.007207	0.999935	
3715														-0.078303	0.078338	9.792914	-0.869515	0.493778	-0.011255	-0.493827	-0.869558	0.001924	-0.008836	0.007231	0.999935	
3716														-0.093145	0.078245	9.778620	-0.869514	0.493779	-0.011264	-0.493829	-0.869557	0.001911	-0.008851	0.007224	0.999935	
3717														-0.079259	0.093271	9.749272	-0.869512	0.493783	-0.011266	-0.493832	-0.869555	0.001885	-0.008865	0.007202	0.999935	
3718														-0.078131	0.077783	9.778283	-0.869519	0.493771	-0.011269	-0.493820	-0.869562	0.001892	-0.008865	0.007210	0.999935	
3719														-0.092696	0.063190	9.763712	-0.869525	0.493759	-0.011301	-0.493808	-0.869569	0.001919	-0.008880	0.007249	0.999934	
3720														-0.092185	0.077261	9.778637	-0.869532	0.493749	-0.011248	-0.493797	-0.869575	0.001888	-0.008849	0.007196	0.999935	
3721														-0.077371	0.077452	9.763655	-0.869524	0.493762	-0.011254	-0.493811	-0.869567	0.001930	-0.008833	0.007236	0.999935	
3722														-0.090788	0.076468	9.793292	-0.869523	0.493766	-0.011208	-0.493815	-0.869565	0.001913	-0.008801	0.007199	0.999935	
3723														-0.090903	0.090936	9.778937	-0.869529	0.493755	-0.011204	-0.493804	-0.869571	0.001908	-0.008801	0.007191	0.999935	
3724														-0.090823	0.076266	9.764021	-0.869519	0.493771	-0.011213	-0.493820	-0.869562	0.001895	-0.008815	0.007185	0.999935	
3725														-0.090524	0.075969	9.764026	-0.869518	0.493774	-0.011196	-0.493822	-0.869561	0.001897	-0.008799	0.007178	0.999936	
3726														-0.090010	0.090113	9.778953	-0.869525	0.493762	-0.011199	-0.493810	-0.869568	0.001904	-0.008798	0.007186	0.999935	
3727														-0.075712	0.061492	9.734123	-0.869524	0.493765	-0.011179	-0.493813	-0.869566	0.001872	-0.008797	0.007148	0.999936	
3728														-0.089628	0.104155	9.779245	-0.869530	0.493753	-0.011199	-0.493802	-0.869572	0.001906	-0.008797	0.007187	0.999935	
3729														-0.074131	0.060137	9.778055	-0.869535	0.493744	-0.011185	-0.493792	-0.869578	0.001852	-0.008812	0.007134	0.999936	
3730														-0.074836	0.089326	9.763980	-0.869532	0.493749	-0.011223	-0.493798	-0.869575	0.001858	-0.008842	0.007157	0.999935	
3731														-0.088477	0.059466	9.778411	-0.869531	0.493751	-0.011213	-0.493799	-0.869574	0.001873	-0.008826	0.007166	0.999935	
3732														-0.103750	0.074217	9.749767	-0.869543	0.493729	-0.011223	-0.493777	-0.869586	0.001859	-0.008842	0.007158	0.999935	
3733														-0.279832	0.086072	9.739642	-0.869670	0.493506	-0.011212	-0.493554	-0.869713	0.001836	-0.008845	0.007130	0.999935	
3734														-0.659045	0.069288	9.761871	-0.869413	0.493885	-0.014111	-0.493948	-0.869491	0.001128	-0.011712	0.007951	0.999900	
3735														-0.264497	0.062215	9.752595	-0.869484	0.493824	-0.011632	-0.493876	-0.869530	0.002022	-0.009116	0.007503	0.999930	
3736														0.832699	0.104399	9.786217	-0.869519	0.493760	-0.011704	-0.493814	-0.869565	0.002025	-0.009178	0.007540	0.999929	
3737														-0.075832	0.077239	9.749032	-0.869513	0.493774	-0.011615	-0.493827	-0.869557	0.002086	-0.009070	0.007550	0.999930	
3738														-0.104369	0.076209	9.749745	-0.869503	0.493792	-0.011585	-0.493844	-0.869548	0.002007	-0.009083	0.007467	0.999931	
3739														-0.074359	0.090074	9.778613	-0.869502	0.493794	-0.011582	-0.493847	-0.869547	0.002002	-0.009082	0.007460	0.999931	
3740														-0.088708	0.060539	9.763766	-0.869507	0.493785	-0.011591	-0.493837	-0.869552	0.001988	-0.009097	0.007453	0.999931	
3741														-0.074337	0.104467	9.764262	-0.869506	0.493788	-0.011569	-0.493840	-0.869551	0.002011	-0.009067	0.007462	0.999931	
3742														-0.102823	0.074587	9.764409	-0.869505	0.493789	-0.011585	-0.493841	-0.869550	0.002011	-0.009081	0.007470	0.999931	
3743														-0.087958	0.074658	9.764060	-0.869504	0.493791	-0.011589	-0.493843	-0.869549	0.002019	-0.009080	0.007479	0.999931	
3744														-0.088303	0.074988	9.734782	-0.869502	0.493793	-0.011572	-0.493846	-0.869547	0.002021	-0.009064	0.007472	0.999931	
3745														-0.087712	0.088985	9.749713	-0.869494	0.493809	-0.011547	-0.493861	-0.869539	0.002011	-0.009047	0.007451	0.999931	
3746														-0.086691	0.073766	9.764078	-0.869500	0.493799	-0.011537	-0.493851	-0.869544	0.002026	-0.009032	0.007459	0.999931	
3747														-0.086475	0.073533	9.764081	-0.869528	0.493749	-0.011560	-0.493801	-0.869573	0.002004	-0.009063	0.007450	0.999931	
3748														-0.100920	0.073014	9.779077	-0.869556	0.493698	-0.011640	-0.493750	-0.869601	0.002020	-0.009125	0.007503	0.999930	
3749														-0.101148	0.087719	9.779359	-0.869570	0.493673	-0.011643	-0.493726	-0.869615	0.002027	-0.009125	0.007511	0.999930	
3750														-0.101065	0.058680	9.749516	-0.869591	0.493636	-0.011618	-0.493688	-0.869636	0.002015	-0.009109	0.007488	0.999930	
3751														-0.085915	0.101829	9.779303	-0.869590	0.493638	-0.011593	-0.493690	-0.869636	0.002004	-0.009092	0.007466	0.999931	
3752														-0.085465	0.072672	9.764097	-0.869582	0.493652	-0.011611	-0.493705	-0.869627	0.002039	-0.009091	0.007506	0.999931	
3753														-0.085169	0.072747	9.764099	-0.869581	0.493654	-0.011623	-0.493707	-0.869626	0.002060	-0.009090	0.007530	0.999930	
3754														-0.085164	0.101690	9.779311	-0.869526	0.493749	-0.011666	-0.493802	-0.869572	0.002047	-0.009133	0.007540	0.999930	
3755														-0.057574	0.146947	9.735525	-0.869367	0.494029	-0.011697	-0.494083	-0.869412	0.002078	-0.009143	0.007586	0.999929	
3756														0.011148	0.527960	9.770435	-0.868753	0.495107	-0.011713	-0.495160	-0.868799	0.002009	-0.009181	0.007545	0.999929	
3757														0.012806	0.483453	9.784235	-0.867927	0.496553	-0.011747	-0.496607	-0.867973	0.002040	-0.009183	0.007604	0.999929	
3758														-0.099462	0.086763	9.764750	-0.867250	0.497734	-0.011743	-0.497788	-0.867296	0.002001	-0.009189	0.007581	0.999929	
3759														-0.169916	-0.162804	9.747046	-0.866795	0.498528	-0.011699	-0.498582	-0.866840	0.002068	-0.009111	0.007625	0.999929	
3760														-0.153906	-0.148965	9.790902	-0.866831	0.498464	-0.011714	-0.498518	-0.866877	0.002032	-0.009142	0.007601	0.999929	
3761														-0.167978	-0.353527	9.743315	-0.867063	0.498058	-0.011827	-0.498112	-0.867110	0.002005	-0.009257	0.007630	0.999928	
3762														-0.099281	0.072159	9.749829	-0.867115	0.497967	-0.011876	-0.498022	-0.867162	0.002057	-0.009274	0.007698	0.999927	
3763														-0.098424	0.057080	9.778824	-0.867128	0.497943	-0.011920	-0.497999	-0.867175	0.002041	-0.009320	0.007705	0.999927	
3764														-0.099024	0.086560	9.764756	-0.867180	0.497852	-0.011932	-0.497908	-0.867228	0.002060	-0.009322	0.007728	0.999927	
3765														-0.113884	0.100817	9.765402	-0.867450	0.497380	-0.011983	-0.497436	-0.867498	0.002016	-0.009392	0.007709	0.999926	
3766														-0.128505	0.100194	9.765766	-0.867813	0.496747	-0.011954	-0.496803	-0.867861	0.002015	-0.009374	0.007687	0.999927	
3767														-0.098650	0.070773	9.764481	-0.868251	0.495981	-0.011965	-0.496036	-0.868300	0.001988	-0.009403	0.007661	0.999926	
3768														-0.113194	0.041007	9.749627	-0.868666	0.495255	-0.011956	-0.495310	-0.868714	0.001956	-0.009417	0.007621	0.999927	
3769														-0.141450	0.068017	9.794857	-0.869042	0.494595	-0.011881	-0.494649	-0.869091	0.001875	-0.009398	0.007507	0.999928	
3770														-0.201026	0.110553	9.767902	-0.869606	0.493603	-0.011859	-0.493656	-0.869655	0.001847	-0.009402	0.007460	0.999928	
3771														-0.156951	0.111103	9.752193	-0.870486	0.492052	-0.011819	-0.492105	-0.870534	0.001925	-0.009342	0.007492	0.999928	
3772														-0.097717	0.169147	9.795853	-0.871549	0.490168	-0.011736	-0.490220	-0.871597	0.001863	-0.009316	0.007377	0.999929	
3773														-0.082769	0.110786	9.750413	-0.872757	0.488014	-0.011714	-0.488066	-0.872805	0.001868	-0.009313	0.007347	0.999930	
3774														-0.126200	0.109231	9.780782	-0.874108	0.485588	-0.011832	-0.485641	-0.874156	0.001928	-0.009407	0.007432	0.999928	
3775														-0.185644	0.093460	9.752655	-0.875583	0.482922	-0.011851	-0.482975	-0.875632	0.001901	-0.009459	0.007388	0.999928	
3776														-0.187077	0.136633	9.753538	-0.877133	0.480102	-0.011866	-0.480154	-0.877182	0.001927	-0.009484	0.007388	0.999928	
3777														-0.115709	0.196790	9.752902	-0.878841	0.476969	-0.011807	-0.477021	-0.878890	0.001936	-0.009453	0.007334	0.999928	
3778														-0.133808	0.283369	9.769666	-0.880848	0.473250	-0.011920	-0.473303	-0.880897	0.001962	-0.009572	0.007370	0.999927	
3779														-0.026768	0.141117	9.764179	-0.883026	0.469171	-0.011946	-0.469225	-0.883076	0.002013	-0.009605	0.007383	0.999927	
3780														-0.091843	-0.038084	9.777137	-0.885015	0.465408	-0.011950	-0.465462	-0.885065	0.002030	-0.009632	0.007358	0.999927	
3781														0.077119	0.102136	9.760748	-0.886805	0.461989	-0.011971	-0.462043	-0.886855	0.002024	-0.009682	0.007326	0.999926	
3782														0.364428	-0.072407	9.735368	-0.888693	0.458345	-0.012008	-0.458399	-0.888744	0.002042	-0.009736	0.007319	0.999926	
3783														-0.075791	0.182787	9.736865	-0.891142	0.453563	-0.012085	-0.453618	-0.891194	0.002108	-0.009814	0.007360	0.999925	
3784														-0.236120	0.170853	9.814072	-0.893310	0.449276	-0.012194	-0.449331	-0.893363	0.002023	-0.009985	0.007287	0.999924	
3785														-0.286739	0.210982	9.772071	-0.895570	0.444747	-0.012460	-0.444802	-0.895627	0.001903	-0.010313	0.007247	0.999921	
3786														-0.148171	0.073563	9.751223	-0.898104	0.439601	-0.012677	-0.439657	-0.898164	0.001871	-0.010564	0.007254	0.999918	
3787														-0.410966	0.051287	9.786939	-0.900580	0.434507	-0.012624	-0.434563	-0.900639	0.001916	-0.010537	0.007211	0.999918	
3788														-0.112024	-0.013176	9.734123	-0.902758	0.429966	-0.012513	-0.430021	-0.902817	0.001897	-0.010481	0.007094	0.999920	
3789														-0.156391	0.186118	9.797534	-0.905026	0.425176	-0.012342	-0.425230	-0.905083	0.001958	-0.010338	0.007020	0.999922	
3790														-0.185741	0.182886	9.769007	-0.907377	0.420137	-0.012286	-0.420191	-0.907434	0.002037	-0.010293	0.007011	0.999922	
3791														-0.249853	0.233933	9.771672	-0.909821	0.414822	-0.012188	-0.414874	-0.909877	0.002032	-0.010247	0.006905	0.999924	
3792														-0.236080	0.100760	9.769058	-0.912308	0.409326	-0.012112	-0.409378	-0.912363	0.002026	-0.010221	0.006807	0.999925	
3793														-0.135187	-0.007370	9.779141	-0.914810	0.403700	-0.012160	-0.403753	-0.914866	0.002093	-0.010279	0.006825	0.999924	
3794														0.016368	-0.166632	9.757645	-0.917273	0.398073	-0.012173	-0.398125	-0.917329	0.002060	-0.010346	0.006736	0.999924	
3795														-0.068875	0.057814	9.793128	-0.919810	0.392175	-0.012139	-0.392227	-0.919866	0.002098	-0.010343	0.006691	0.999924	
3796														0.045677	0.087090	9.775831	-0.922453	0.385923	-0.011990	-0.385973	-0.922508	0.002069	-0.010262	0.006536	0.999926	
3797														-0.167158	0.130674	9.753266	-0.925141	0.379441	-0.011791	-0.379489	-0.925194	0.002040	-0.010135	0.006362	0.999928	
3798														-0.231739	0.074309	9.783555	-0.927635	0.373303	-0.011734	-0.373351	-0.927688	0.002100	-0.010102	0.006329	0.999929	
3799														-0.317322	0.148470	9.801874	-0.929805	0.367861	-0.011845	-0.367909	-0.929859	0.002105	-0.010240	0.006315	0.999928	
3800														0.041399	0.027376	9.775004	-0.932234	0.361659	-0.011916	-0.361709	-0.932288	0.002254	-0.010294	0.006411	0.999926	
3801														-0.077546	0.112297	9.750438	-0.934697	0.355247	-0.011907	-0.355295	-0.934752	0.002132	-0.010372	0.006224	0.999927	
3802														-0.085123	0.154374	9.765985	-0.937358	0.348164	-0.011890	-0.348212	-0.937413	0.002225	-0.010371	0.006226	0.999927	
3803														-0.097990	0.061837	9.779589	-0.940145	0.340571	-0.011806	-0.340619	-0.940199	0.002238	-0.010338	0.006126	0.999928	
3804														-0.146430	0.081468	9.781331	-0.942931	0.332779	-0.011823	-0.332827	-0.942985	0.002284	-0.010388	0.006088	0.999928	
3805														-0.052218	0.129366	9.764646	-0.945664	0.324932	-0.011779	-0.324979	-0.945718	0.002308	-0.010389	0.006010	0.999928	
3806														-0.040008	0.145583	9.793856	-0.948197	0.317467	-0.011678	-0.317514	-0.948251	0.002329	-0.010334	0.005917	0.999929	
3807														-0.001632	0.033779	9.776432	-0.950535	0.310398	-0.011666	-0.310444	-0.950589	0.002333	-0.010365	0.005839	0.999929	
3808														-0.038722	-0.004062	9.747695	-0.952695	0.303705	-0.011650	-0.303751	-0.952748	0.002378	-0.010377	0.005804	0.999929	
3809														-0.031722	0.041175	9.806781	-0.954598	0.297672	-0.011590	-0.297719	-0.954651	0.002454	-0.010334	0.005793	0.999930	
3810														0.002932	0.080463	9.747672	-0.956235	0.292369	-0.011587	-0.292415	-0.956288	0.002447	-0.010366	0.005728	0.999930	
3811														0.027737	0.040619	9.761024	-0.957697	0.287545	-0.011599	-0.287590	-0.957750	0.002410	-0.010416	0.005644	0.999930	
3812														-0.088820	0.086724	9.779872	-0.958993	0.283193	-0.011591	-0.283238	-0.959046	0.002455	-0.010421	0.005638	0.999930	
3813														-0.113524	0.004272	9.779517	-0.960194	0.279094	-0.011588	-0.279139	-0.960248	0.002403	-0.010457	0.005543	0.999930	
3814														-0.244760	-0.015212	9.783289	-0.961373	0.275003	-0.011635	-0.275048	-0.961427	0.002429	-0.010518	0.005536	0.999929	
3815														-0.076840	0.089223	9.735574	-0.962450	0.271209	-0.011678	-0.271254	-0.962505	0.002409	-0.010587	0.005486	0.999929	
3816														-0.066660	0.166591	9.765609	-0.963466	0.267578	-0.011665	-0.267623	-0.963521	0.002415	-0.010593	0.005448	0.999929	
3817														-0.081238	0.162263	9.766000	-0.964552	0.263633	-0.011693	-0.263677	-0.964608	0.002404	-0.010645	0.005402	0.999929	
3818														-0.240824	0.072952	9.740428	-0.965641	0.259615	-0.011757	-0.259659	-0.965698	0.002358	-0.010742	0.005330	0.999928	
3819														-0.126536	-0.064330	9.749788	-0.966734	0.255519	-0.011664	-0.255562	-0.966790	0.002329	-0.010681	0.005233	0.999929	
3820														-0.140526	-0.009149	9.780304	-0.967815	0.251392	-0.011654	-0.251435	-0.967871	0.002380	-0.010681	0.005234	0.999929	
3821														-0.027987	0.023027	9.762575	-0.968787	0.247622	-0.011658	-0.247665	-0.968843	0.002399	-0.010701	0.005211	0.999929	
3822														0.016624	0.081188	9.776589	-0.969613	0.244367	-0.011651	-0.244410	-0.969669	0.002396	-0.010712	0.005171	0.999929	
3823														0.023236	0.006524	9.775440	-0.970245	0.241844	-0.011677	-0.241887	-0.970301	0.002375	-0.010756	0.005129	0.999929	
3824														-0.079747	-0.008533	9.749182	-0.970774	0.239715	-0.011639	-0.239757	-0.970830	0.002402	-0.010723	0.005122	0.999929	
3825														-0.118001	0.070847	9.766067	-0.971235	0.237838	-0.011630	-0.237880	-0.971292	0.002389	-0.010728	0.005086	0.999930	
3826														-0.102566	0.121000	9.766222	-0.971686	0.235987	-0.011652	-0.236029	-0.971743	0.002414	-0.010753	0.005096	0.999929	
3827														-0.103559	0.074463	9.765688	-0.972114	0.234221	-0.011606	-0.234263	-0.972170	0.002435	-0.010713	0.005086	0.999930	
3828														-0.108933	0.041653	9.765462	-0.972542	0.232433	-0.011668	-0.232475	-0.972599	0.002392	-0.010792	0.005039	0.999929	
3829														-0.020147	-0.099876	9.746239	-0.972962	0.230671	-0.011667	-0.230713	-0.973019	0.002361	-0.010808	0.004989	0.999929	
3830														-0.026830	-0.026196	9.762043	-0.973262	0.229404	-0.011643	-0.229445	-0.973319	0.002364	-0.010790	0.004972	0.999929	
3831														-0.065794	0.052827	9.778946	-0.973525	0.228286	-0.011598	-0.228327	-0.973582	0.002363	-0.010752	0.004948	0.999930	
3832														-0.119921	0.128012	9.766967	-0.973728	0.227418	-0.011603	-0.227460	-0.973784	0.002410	-0.010751	0.004986	0.999930	
3833														-0.134620	0.076989	9.766817	-0.974015	0.226187	-0.011609	-0.226228	-0.974072	0.002368	-0.010773	0.004933	0.999930	
3834														-0.122269	0.034715	9.736603	-0.974356	0.224711	-0.011608	-0.224752	-0.974413	0.002344	-0.010784	0.004893	0.999930	
3835														-0.138931	0.043179	9.781234	-0.974754	0.222980	-0.011590	-0.223021	-0.974811	0.002354	-0.010773	0.004880	0.999930	
3836														-0.083396	0.060555	9.765032	-0.975158	0.221207	-0.011603	-0.221248	-0.975215	0.002317	-0.010803	0.004827	0.999930	
3837														-0.102769	0.023265	9.750549	-0.975561	0.219420	-0.011608	-0.219461	-0.975619	0.002301	-0.010820	0.004792	0.999930	
3838														-0.106393	0.036422	9.765511	-0.975944	0.217715	-0.011565	-0.217755	-0.976001	0.002287	-0.010789	0.004751	0.999931	
3839														-0.139054	0.041236	9.751976	-0.976308	0.216075	-0.011625	-0.216116	-0.976365	0.002334	-0.010846	0.004791	0.999930	
3840														-0.143681	0.054706	9.752294	-0.976631	0.214610	-0.011627	-0.214650	-0.976688	0.002274	-0.010868	0.004717	0.999930	
3841														-0.207603	0.062919	9.783782	-0.976958	0.213115	-0.011663	-0.213154	-0.977016	0.002216	-0.010923	0.004651	0.999930	
3842														-0.087529	0.117660	9.765936	-0.977262	0.211713	-0.011664	-0.211753	-0.977321	0.002240	-0.010925	0.004659	0.999929	
3843														-0.026540	0.121752	9.778692	-0.977595	0.210171	-0.011626	-0.210210	-0.977654	0.002243	-0.010894	0.004636	0.999930	
3844														-0.045673	0.084999	9.749563	-0.977956	0.208487	-0.011624	-0.208527	-0.978014	0.002296	-0.010889	0.004670	0.999930	
3845														-0.049240	0.005992	9.763396	-0.978312	0.206815	-0.011571	-0.206854	-0.978369	0.002304	-0.010845	0.004647	0.999930	
3846														-0.137082	-0.008273	9.751450	-0.978624	0.205333	-0.011573	-0.205372	-0.978681	0.002324	-0.010849	0.004651	0.999930	
3847														-0.154973	0.000339	9.766807	-0.978995	0.203555	-0.011597	-0.203595	-0.979053	0.002316	-0.010883	0.004629	0.999930	
3848														-0.225588	0.069024	9.740645	-0.979435	0.201426	-0.011574	-0.201465	-0.979493	0.002303	-0.010873	0.004588	0.999930	
3849														-0.155444	0.091862	9.767950	-0.979937	0.198966	-0.011637	-0.199006	-0.979996	0.002334	-0.010940	0.004603	0.999930	
3850														-0.224899	0.113255	9.785140	-0.980411	0.196619	-0.011627	-0.196658	-0.980470	0.002265	-0.010955	0.004507	0.999930	
3851														-0.146085	0.062873	9.752682	-0.980849	0.194428	-0.011564	-0.194467	-0.980906	0.002315	-0.010893	0.004520	0.999930	
3852														-0.183362	0.080762	9.739492	-0.981309	0.192092	-0.011563	-0.192131	-0.981366	0.002357	-0.010895	0.004535	0.999930	
3853														-0.136053	0.126851	9.797108	-0.981804	0.189540	-0.011601	-0.189579	-0.981863	0.002364	-0.010942	0.004520	0.999930	
3854														-0.108957	0.089964	9.751833	-0.982349	0.186700	-0.011544	-0.186738	-0.982407	0.002288	-0.010914	0.004403	0.999931	
3855														-0.103288	0.074950	9.766160	-0.982913	0.183706	-0.011543	-0.183743	-0.982972	0.002268	-0.010930	0.004351	0.999931	
3856														-0.074399	0.038041	9.764790	-0.983466	0.180727	-0.011533	-0.180765	-0.983524	0.002270	-0.010933	0.004317	0.999931	
3857														-0.143779	0.058457	9.782006	-0.984033	0.177610	-0.011529	-0.177647	-0.984092	0.002283	-0.010940	0.004295	0.999931	
3858														-0.097479	0.059449	9.780487	-0.984584	0.174531	-0.011553	-0.174568	-0.984642	0.002286	-0.010977	0.004268	0.999931	
3859														-0.083946	0.064358	9.765454	-0.985151	0.171304	-0.011492	-0.171341	-0.985209	0.002320	-0.010924	0.004254	0.999931	
3860														-0.042847	0.000128	9.792702	-0.985662	0.168344	-0.011465	-0.168380	-0.985720	0.002279	-0.010918	0.004177	0.999932	
3861														-0.070193	0.068732	9.750425	-0.986127	0.165592	-0.011504	-0.165629	-0.986185	0.002331	-0.010959	0.004204	0.999931	
3862														-0.005720	-0.016491	9.761967	-0.986559	0.162995	-0.011537	-0.163033	-0.986618	0.002372	-0.010996	0.004221	0.999931	
3863														-0.067503	0.021921	9.779119	-0.986948	0.160618	-0.011606	-0.160655	-0.987008	0.002337	-0.011079	0.004171	0.999930	
3864														-0.090911	-0.002565	9.750309	-0.987273	0.158607	-0.011678	-0.158644	-0.987333	0.002325	-0.011162	0.004149	0.999929	
3865														-0.204574	0.046619	9.769309	-0.987555	0.156836	-0.011727	-0.156874	-0.987616	0.002341	-0.011215	0.004152	0.999928	
3866														-0.204801	0.125160	9.770140	-0.987885	0.154734	-0.011844	-0.154772	-0.987947	0.002361	-0.011336	0.004166	0.999927	
3867														-0.197901	0.064781	9.783840	-0.988244	0.152406	-0.012067	-0.152445	-0.988309	0.002356	-0.011567	0.004168	0.999924	
3868														-0.008597	0.016022	9.718302	-0.988596	0.150091	-0.012238	-0.150130	-0.988663	0.002336	-0.011748	0.004147	0.999922	
3869														-0.102333	0.055302	9.780462	-0.988976	0.147575	-0.012194	-0.147613	-0.989043	0.002263	-0.011727	0.004038	0.999923	
3870														-0.020513	0.008943	9.762617	-0.989319	0.145256	-0.012158	-0.145294	-0.989386	0.002302	-0.011695	0.004043	0.999923	
3871														-0.055406	0.057452	9.778963	-0.989643	0.143035	-0.012193	-0.143073	-0.989709	0.002317	-0.011736	0.004037	0.999923	
3872														-0.088093	0.059473	9.780082	-0.989970	0.140747	-0.012198	-0.140784	-0.990038	0.002294	-0.011754	0.003988	0.999923	
3873														-0.041879	0.062323	9.778572	-0.990278	0.138566	-0.012219	-0.138604	-0.990345	0.002314	-0.011780	0.003985	0.999923	
3874														-0.080621	0.078214	9.765381	-0.990606	0.136199	-0.012230	-0.136237	-0.990673	0.002352	-0.011796	0.003996	0.999922	
3875														-0.066608	0.005188	9.734856	-0.990968	0.133539	-0.012208	-0.133578	-0.991035	0.002381	-0.011781	0.003991	0.999923	
3876														-0.110519	0.000501	9.794932	-0.991347	0.130694	-0.012229	-0.130732	-0.991415	0.002344	-0.011818	0.003923	0.999922	
3877														-0.139840	0.067272	9.767309	-0.991708	0.127929	-0.012188	-0.127966	-0.991776	0.002312	-0.011792	0.003853	0.999923	
3878														-0.155094	0.139270	9.768581	-0.992089	0.124946	-0.012205	-0.124982	-0.992156	0.002258	-0.011827	0.003765	0.999923	
3879														-0.230130	0.090138	9.770632	-0.992477	0.121823	-0.012208	-0.121859	-0.992545	0.002301	-0.011837	0.003772	0.999923	
3880														-0.295718	0.092899	9.772882	-0.992879	0.118497	-0.012256	-0.118534	-0.992947	0.002327	-0.011893	0.003763	0.999922	
3881														-0.192456	0.073780	9.739911	-0.993241	0.115434	-0.012152	-0.115470	-0.993308	0.002294	-0.011806	0.003682	0.999924	
3882														-0.117365	0.088784	9.781527	-0.993653	0.111839	-0.012109	-0.111875	-0.993720	0.002329	-0.011772	0.003669	0.999924	
3883														-0.084244	0.086885	9.795038	-0.994039	0.108343	-0.012171	-0.108379	-0.994107	0.002344	-0.011845	0.003649	0.999923	
3884														-0.041735	0.058778	9.749322	-0.994447	0.104519	-0.012263	-0.104555	-0.994516	0.002299	-0.011955	0.003568	0.999922	
3885														-0.098226	0.112440	9.795700	-0.994843	0.100668	-0.012369	-0.100704	-0.994914	0.002345	-0.012070	0.003578	0.999921	
3886														-0.226771	0.102687	9.785170	-0.995214	0.096866	-0.012909	-0.096902	-0.995291	0.002251	-0.012631	0.003491	0.999914	
3887														-0.107474	0.078511	9.780720	-0.995590	0.092872	-0.013267	-0.092909	-0.995672	0.002229	-0.013003	0.003452	0.999910	
3888														-0.144226	0.057636	9.763381	-0.996072	0.087354	-0.013356	-0.087391	-0.996156	0.002255	-0.013108	0.003413	0.999908	
3889														-0.180978	0.036761	9.746043	-0.996555	0.081835	-0.013444	-0.081873	-0.996640	0.002281	-0.013212	0.003374	0.999907	
3890														-0.251024	-0.039242	9.755025	-0.997061	0.075414	-0.013464	-0.075452	-0.997147	0.002348	-0.013249	0.003357	0.999907	
3891														-0.209677	-0.054439	9.797531	-0.997554	0.068592	-0.013433	-0.068629	-0.997639	0.002345	-0.013240	0.003261	0.999907	
3892														-0.124998	0.035994	9.766171	-0.998000	0.061778	-0.013425	-0.061815	-0.998085	0.002318	-0.013256	0.003144	0.999907	
3893														-0.040737	0.127392	9.749453	-0.998391	0.055111	-0.013325	-0.055146	-0.998476	0.002305	-0.013178	0.003036	0.999909	
3894														-0.189526	0.130854	9.783882	-0.998722	0.048807	-0.013135	-0.048842	-0.998804	0.002371	-0.013003	0.003009	0.999911	
3895														-0.241428	0.167776	9.756785	-0.999028	0.042211	-0.012730	-0.042244	-0.999105	0.002350	-0.012619	0.002885	0.999916	
3896														-0.237304	0.100512	9.770941	-0.999292	0.035434	-0.012626	-0.035467	-0.999368	0.002428	-0.012532	0.002874	0.999917	
3897														-0.247147	0.026526	9.785442	-0.999517	0.028408	-0.012634	-0.028441	-0.999592	0.002453	-0.012559	0.002811	0.999917	
3898														-0.071364	0.038905	9.764765	-0.999688	0.021520	-0.012654	-0.021552	-0.999765	0.002414	-0.012599	0.002686	0.999917	
3899														-0.110290	0.167090	9.767017	-0.999817	0.014399	-0.012558	-0.014431	-0.999893	0.002401	-0.012522	0.002582	0.999918	
3900														-0.165750	0.116655	9.797960	-0.999896	0.007088	-0.012532	-0.007119	-0.999972	0.002414	-0.012515	0.002503	0.999919	
3901														-0.268633	0.056673	9.757242	-0.999922	-0.000428	-0.012489	0.000397	-0.999997	0.002476	-0.012490	0.002471	0.999919	
3902														-0.202614	0.059420	9.769621	-0.999889	-0.008125	-0.012464	0.008095	-0.999964	0.002482	-0.012484	0.002380	0.999919	
3903														-0.064255	0.055363	9.764735	-0.999797	-0.015894	-0.012404	0.015865	-0.999871	0.002415	-0.012441	0.002218	0.999920	
3904														-0.079969	0.026818	9.779846	-0.999639	-0.023905	-0.012227	0.023877	-0.999712	0.002503	-0.012284	0.002210	0.999922	
3905														-0.121440	-0.016978	9.737222	-0.999422	-0.031795	-0.012023	0.031767	-0.999492	0.002486	-0.012096	0.002103	0.999925	
3906														-0.063056	-0.052067	9.749686	-0.999132	-0.039896	-0.011974	0.039869	-0.999202	0.002456	-0.012062	0.001976	0.999925	
3907														-0.035592	-0.036953	9.792793	-0.998758	-0.048375	-0.011900	0.048349	-0.998827	0.002503	-0.012007	0.001924	0.999926	
3908														-0.126907	0.077381	9.767411	-0.998291	-0.057290	-0.011523	0.057264	-0.998356	0.002581	-0.011652	0.001916	0.999930	
3909														-0.108223	-0.053788	9.737035	-0.997680	-0.067136	-0.011264	0.067112	-0.997742	0.002472	-0.011404	0.001710	0.999934	
3910														-0.190046	-0.187373	9.798371	-0.996961	-0.077112	-0.011052	0.077090	-0.997021	0.002424	-0.011206	0.001565	0.999936	
3911														-0.290110	-0.172020	9.758354	-0.996143	-0.087059	-0.010984	0.087038	-0.996202	0.002391	-0.011150	0.001426	0.999937	
3912														-0.191008	-0.033401	9.769814	-0.995194	-0.097299	-0.011028	0.097278	-0.995254	0.002436	-0.011213	0.001352	0.999936	
3913														-0.302734	-0.008410	9.744774	-0.994153	-0.107413	-0.011043	0.107394	-0.994214	0.002348	-0.011231	0.001148	0.999936	
3914														-0.225271	0.154670	9.771606	-0.993036	-0.117294	-0.011033	0.117276	-0.993097	0.002299	-0.011226	0.000989	0.999936	
3915														-0.156138	0.153074	9.695674	-0.991795	-0.127357	-0.011056	0.127339	-0.991856	0.002334	-0.011263	0.000907	0.999936	
3916														-0.091342	0.143807	9.810448	-0.990336	-0.138253	-0.011018	0.138236	-0.990397	0.002350	-0.011237	0.000804	0.999937	
3917														-0.159994	0.014694	9.768879	-0.988701	-0.149500	-0.010971	0.149483	-0.988761	0.002391	-0.011205	0.000724	0.999937	
3918														-0.098998	0.006671	9.737268	-0.986939	-0.160717	-0.010986	0.160701	-0.987000	0.002356	-0.011222	0.000560	0.999937	
3919														-0.121656	-0.033789	9.782083	-0.985045	-0.171941	-0.011031	0.171924	-0.985107	0.002487	-0.011294	0.000553	0.999936	
3920														-0.214165	-0.017630	9.770923	-0.983081	-0.182835	-0.011075	0.182818	-0.983144	0.002468	-0.011339	0.000401	0.999936	
3921														-0.119470	0.180941	9.723296	-0.981130	-0.193034	-0.011048	0.193019	-0.981192	0.002426	-0.011309	0.000247	0.999936	
3922														0.044555	0.305800	9.790242	-0.979120	-0.202989	-0.010958	0.202974	-0.979181	0.002476	-0.011232	0.000200	0.999937	
3923														-0.188511	0.254392	9.784397	-0.977016	-0.212886	-0.010925	0.212871	-0.977077	0.002517	-0.011211	0.000134	0.999937	
3924														-0.192136	0.273548	9.725782	-0.974860	-0.222551	-0.010898	0.222535	-0.974921	0.002606	-0.011205	0.000116	0.999937	
3925														-0.131924	0.290069	9.738025	-0.972629	-0.232102	-0.011059	0.232090	-0.972691	0.002421	-0.011319	-0.000212	0.999936	
3926														-0.093458	0.224942	9.765933	-0.970393	-0.241278	-0.011079	0.241266	-0.970456	0.002450	-0.011343	-0.000296	0.999936	
3927														-0.127635	0.130830	9.767359	-0.968001	-0.250694	-0.011225	0.250682	-0.968066	0.002487	-0.011490	-0.000406	0.999934	
3928														-0.222131	-0.026293	9.785911	-0.965602	-0.259773	-0.011419	0.259760	-0.965670	0.002570	-0.011695	-0.000485	0.999931	
3929														-0.127806	-0.141342	9.782697	-0.963141	-0.268753	-0.011439	0.268742	-0.963209	0.002512	-0.011693	-0.000654	0.999931	
3930														-0.090797	-0.017953	9.692984	-0.960653	-0.277519	-0.011374	0.277509	-0.960720	0.002530	-0.011629	-0.000726	0.999932	
3931														-0.051385	0.189839	9.807988	-0.958084	-0.286258	-0.011443	0.286248	-0.958152	0.002513	-0.011684	-0.000868	0.999931	
3932														-0.104165	0.155151	9.795394	-0.955355	-0.295235	-0.011489	0.295227	-0.955424	0.002419	-0.011690	-0.001081	0.999931	
3933														-0.128877	-0.045052	9.738503	-0.952572	-0.304094	-0.011576	0.304087	-0.952641	0.002429	-0.011766	-0.001207	0.999930	
3934														-0.168174	0.106928	9.783192	-0.949745	-0.312806	-0.011729	0.312799	-0.949816	0.002496	-0.011921	-0.001298	0.999928	
3935														-0.185985	-0.000384	9.711017	-0.946673	-0.321981	-0.011793	0.321976	-0.946745	0.002427	-0.011946	-0.001500	0.999928	
3936														-0.086759	0.088850	9.780135	-0.943445	-0.331318	-0.011797	0.331312	-0.943518	0.002529	-0.011969	-0.001522	0.999927	
3937														-0.284420	0.080526	9.787478	-0.940162	-0.340522	-0.011845	0.340517	-0.940235	0.002460	-0.011975	-0.001720	0.999927	
3938														-0.349609	-0.022779	9.761114	-0.936907	-0.349373	-0.011965	0.349369	-0.936982	0.002545	-0.012100	-0.001796	0.999925	
3939														-0.185024	-0.029899	9.696406	-0.933623	-0.358056	-0.012018	0.358054	-0.933698	0.002393	-0.012078	-0.002069	0.999925	
3940														-0.096698	0.072143	9.809852	-0.930407	-0.366343	-0.011633	0.366341	-0.930478	0.002344	-0.011683	-0.002081	0.999930	
3941														-0.119119	0.110039	9.825220	-0.926638	-0.375783	-0.011373	0.375782	-0.926705	0.002243	-0.011383	-0.002195	0.999933	
3942														-0.088069	0.081042	9.707022	-0.922636	-0.385504	-0.011412	0.385505	-0.922703	0.002220	-0.011385	-0.002351	0.999932	
3943														-0.141720	-0.043043	9.753932	-0.918500	-0.395258	-0.011347	0.395259	-0.918567	0.002263	-0.011317	-0.002407	0.999933	
3944														-0.092547	-0.005561	9.810451	-0.914104	-0.405319	-0.011414	0.405322	-0.914171	0.002198	-0.011325	-0.002617	0.999932	
3945														-0.253320	-0.077342	9.699733	-0.909634	-0.415251	-0.011513	0.415254	-0.909703	0.002180	-0.011379	-0.002798	0.999931	
3946														-0.209977	0.001132	9.843985	-0.905123	-0.424989	-0.011658	0.424994	-0.905193	0.002209	-0.011492	-0.002955	0.999930	
3947														-0.609844	0.278643	9.709450	-0.900434	-0.434825	-0.012090	0.434832	-0.900509	0.002164	-0.011828	-0.003309	0.999925	
3948														-0.188365	-0.094977	9.770471	-0.896292	-0.443299	-0.012145	0.443303	-0.896368	0.002454	-0.011974	-0.003185	0.999923	
3949														-0.210988	-0.132267	9.786340	-0.892000	-0.451875	-0.012052	0.451880	-0.892075	0.002486	-0.011874	-0.003229	0.999924	
3950														-0.372758	0.019664	9.732139	-0.887624	-0.460414	-0.011985	0.460420	-0.887698	0.002393	-0.011741	-0.003393	0.999925	
3951														-0.408566	-0.013334	9.704501	-0.883642	-0.468012	-0.011872	0.468017	-0.883716	0.002519	-0.011671	-0.003331	0.999926	
3952														-0.267663	0.124872	9.800532	-0.880012	-0.474803	-0.011844	0.474808	-0.880086	0.002536	-0.011628	-0.003392	0.999927	
3953														0.181092	0.107702	9.725781	-0.876033	-0.482105	-0.011895	0.482110	-0.876107	0.002631	-0.011690	-0.003430	0.999926	
3954														0.205511	0.265557	9.796372	-0.871588	-0.490090	-0.012069	0.490097	-0.871664	0.002588	-0.011789	-0.003659	0.999924	
3955														-0.031385	0.010090	9.749104	-0.867127	-0.497936	-0.012258	0.497944	-0.867205	0.002656	-0.011952	-0.003801	0.999921	
3956														-0.027784	0.075347	9.836041	-0.862859	-0.505286	-0.012657	0.505294	-0.862943	0.002765	-0.012319	-0.004010	0.999916	
3957														0.062586	0.102227	9.817613	-0.858917	-0.511927	-0.013828	0.511934	-0.859018	0.003305	-0.013571	-0.004241	0.999899	
3958														-0.084254	0.104704	9.778059	-0.855325	-0.517867	-0.015282	0.517871	-0.855449	0.003960	-0.015124	-0.004527	0.999875	
3959														-0.066988	0.066423	9.630983	-0.851895	-0.523477	-0.015713	0.523485	-0.852026	0.003951	-0.015456	-0.004860	0.999869	
3960														0.158449	0.146553	9.725370	-0.848753	-0.528555	-0.015745	0.528563	-0.848885	0.003995	-0.015477	-0.004931	0.999868	
3961														0.224424	0.115186	9.782277	-0.844868	-0.534746	-0.015672	0.534752	-0.844999	0.004107	-0.015439	-0.004911	0.999869	
3962														-0.004655	-0.011547	9.835084	-0.840648	-0.541355	-0.015647	0.541363	-0.840779	0.004134	-0.015394	-0.004995	0.999869	
3963														-0.167637	-0.132937	9.665845	-0.836829	-0.547233	-0.015911	0.547244	-0.836963	0.004075	-0.015547	-0.005297	0.999865	
3964														-0.027313	-0.053784	9.762995	-0.833198	-0.552747	-0.015864	0.552757	-0.833332	0.004153	-0.015516	-0.005309	0.999866	
3965														-0.043587	0.005643	9.909265	-0.829655	-0.558042	-0.016157	0.558056	-0.829793	0.004062	-0.015674	-0.005647	0.999861	
3966														0.098123	-0.169594	9.745760	-0.826131	-0.563231	-0.016683	0.563259	-0.826273	0.003386	-0.015692	-0.006600	0.999855	
3967														-0.096322	-0.180398	9.795689	-0.822655	-0.568286	-0.017031	0.568323	-0.822800	0.003075	-0.015761	-0.007150	0.999850	
3968														0.077698	-0.190398	9.687635	-0.819604	-0.572657	-0.017718	0.572712	-0.819753	0.002288	-0.015834	-0.008272	0.999840	
3969														0.213138	0.132605	9.796994	-0.815935	-0.577870	-0.017765	0.577925	-0.816086	0.002363	-0.015864	-0.008339	0.999839	
3970														0.404067	0.174462	9.688092	-0.811687	-0.583824	-0.017714	0.583881	-0.811836	0.002312	-0.015731	-0.008466	0.999840	
3971														0.042816	0.184550	9.977369	-0.806743	-0.590642	-0.017530	0.590685	-0.806896	0.003169	-0.016017	-0.007798	0.999841	
3972														-0.189151	0.052467	9.824599	-0.802232	-0.596776	-0.016807	0.596779	-0.802387	0.005354	-0.016680	-0.005735	0.999844	
3973														-0.800819	-0.389684	9.585134	-0.798302	-0.602021	-0.016890	0.602021	-0.798460	0.005655	-0.016891	-0.005653	0.999841	
3974														-0.007574	-0.555806	9.725868	-0.794691	-0.606778	-0.016925	0.606778	-0.794851	0.005689	-0.016905	-0.005749	0.999841	
3975														-0.031486	-0.353453	9.782164	-0.790301	-0.612487	-0.016825	0.612488	-0.790459	0.005709	-0.016796	-0.005793	0.999842	
3976														-0.164609	-0.254646	9.711246	-0.786212	-0.617727	-0.016859	0.617728	-0.786371	0.005762	-0.016817	-0.005884	0.999841	
3977														-0.198689	-0.112496	9.856538	-0.782287	-0.622690	-0.016879	0.622692	-0.782446	0.005789	-0.016811	-0.005982	0.999841	
3978														-0.416066	-0.019720	9.729303	-0.778321	-0.627636	-0.017022	0.627639	-0.778483	0.005794	-0.016887	-0.006174	0.999838	
3979														-0.566025	0.084481	10.024196	-0.775263	-0.631371	-0.018397	0.631364	-0.775456	0.006881	-0.018610	-0.006280	0.999807	
3980														-0.169343	0.537189	9.565117	-0.772493	-0.634658	-0.021514	0.634627	-0.772765	0.009113	-0.022409	-0.006613	0.999727	
3981														-0.275493	0.008409	9.823971	-0.769383	-0.638381	-0.022799	0.638334	-0.769691	0.010212	-0.024067	-0.006697	0.999688	
3982														-0.219048	-0.175871	9.766349	-0.766133	-0.642227	-0.024202	0.642159	-0.766485	0.011492	-0.025931	-0.006737	0.999641	
3983														-0.013344	-0.083957	9.657935	-0.762412	-0.646622	-0.024647	0.646544	-0.762781	0.012078	-0.026610	-0.006727	0.999623	
3984														-0.131577	-0.196788	9.720558	-0.758508	-0.651201	-0.024554	0.651124	-0.758875	0.012110	-0.026519	-0.006802	0.999625	
3985														-0.254869	-0.293865	9.739127	-0.754728	-0.655579	-0.024526	0.655504	-0.755095	0.012104	-0.026455	-0.006941	0.999626	
3986														-0.247761	-0.207487	9.741239	-0.751211	-0.659589	-0.024414	0.659513	-0.751575	0.012179	-0.026383	-0.006952	0.999628	
3987														-0.240653	-0.121109	9.743350	-0.747693	-0.663599	-0.024302	0.663523	-0.748056	0.012255	-0.026311	-0.006962	0.999630	
3988														-0.213673	0.340277	9.800873	-0.744108	-0.667616	-0.024316	0.667541	-0.744472	0.012289	-0.026307	-0.007087	0.999629	
3989														-0.179284	0.357776	9.755944	-0.740253	-0.671891	-0.024221	0.671817	-0.740615	0.012322	-0.026218	-0.007150	0.999631	
3990														-0.212920	0.000433	9.821378	-0.736108	-0.676430	-0.024234	0.676357	-0.736470	0.012346	-0.026198	-0.007303	0.999630	
3991														-0.162244	-0.338317	9.738555	-0.732092	-0.680780	-0.024081	0.680704	-0.732452	0.012478	-0.026133	-0.007257	0.999632	
3992														-0.313168	-0.291509	9.813764	-0.728278	-0.684860	-0.024046	0.684785	-0.728638	0.012518	-0.026094	-0.007349	0.999632	
3993														-0.288251	-0.103746	9.722035	-0.724514	-0.688841	-0.024032	0.688769	-0.724873	0.012501	-0.026031	-0.007495	0.999633	
3994														-0.250221	-0.095172	9.757846	-0.721104	-0.692395	-0.023964	0.692322	-0.721463	0.012560	-0.025986	-0.007534	0.999634	
3995														-0.212192	-0.086599	9.793658	-0.717694	-0.695949	-0.023896	0.695875	-0.718052	0.012619	-0.025941	-0.007572	0.999635	
3996														-0.112026	-0.138338	9.734251	-0.715122	-0.698592	-0.023875	0.698518	-0.715480	0.012686	-0.025944	-0.007605	0.999634	
3997														-0.068925	0.018241	9.774573	-0.712711	-0.701053	-0.023807	0.700978	-0.713068	0.012764	-0.025924	-0.007591	0.999635	
3998														-0.096984	0.025819	9.774933	-0.710575	-0.703219	-0.023795	0.703145	-0.710932	0.012762	-0.025891	-0.007663	0.999635	
3999														-0.105255	-0.123892	9.777871	-0.708717	-0.705092	-0.023789	0.705020	-0.709073	0.012720	-0.025836	-0.007757	0.999636	
4000														-0.044160	-0.125478	9.762176	-0.707138	-0.706676	-0.023785	0.706606	-0.707494	0.012667	-0.025779	-0.007849	0.999637	
4001														-0.167258	-0.018485	9.762346	-0.706140	-0.707672	-0.023801	0.707602	-0.706497	0.012704	-0.025806	-0.007871	0.999636	
4002														-0.072514	-0.239308	9.764803	-0.705701	-0.708111	-0.023771	0.708039	-0.706058	0.012761	-0.025820	-0.007825	0.999636	
4003														0.006087	-0.289560	9.779004	-0.705278	-0.708531	-0.023819	0.708461	-0.705635	0.012690	-0.025799	-0.007925	0.999636	
4004														-0.200152	-0.388878	9.769811	-0.705086	-0.708722	-0.023810	0.708653	-0.705443	0.012708	-0.025803	-0.007913	0.999636	
4005														-0.252485	-0.118985	9.751063	-0.705111	-0.708696	-0.023827	0.708625	-0.705469	0.012763	-0.025855	-0.007885	0.999635	
4006														-0.238077	-0.062620	9.749749	-0.705426	-0.708381	-0.023889	0.708311	-0.705786	0.012722	-0.025872	-0.007946	0.999634	
4007														-0.294367	-0.048072	9.779765	-0.705753	-0.708054	-0.023925	0.707983	-0.706114	0.012755	-0.025925	-0.007937	0.999632	
4008														-0.280046	-0.051659	9.779586	-0.706109	-0.707700	-0.023888	0.707629	-0.706469	0.012763	-0.025909	-0.007891	0.999633	
4009														-0.265558	-0.055241	9.779411	-0.706381	-0.707428	-0.023896	0.707356	-0.706742	0.012776	-0.025927	-0.007878	0.999633	
4010														-0.272309	-0.023847	9.764310	-0.706670	-0.707140	-0.023899	0.707070	-0.707029	0.012712	-0.025886	-0.007915	0.999634	
4011														-0.278995	-0.052707	9.764975	-0.706670	-0.707140	-0.023896	0.707070	-0.707029	0.012687	-0.025867	-0.007930	0.999634	
4012														-0.264750	-0.057033	9.750152	-0.706697	-0.707112	-0.023921	0.707043	-0.707057	0.012683	-0.025881	-0.007950	0.999633	
4013														-0.292504	-0.049691	9.779813	-0.706710	-0.707097	-0.023961	0.707029	-0.707071	0.012679	-0.025908	-0.007980	0.999632	
4014														-0.361928	-0.075649	9.722954	-0.706629	-0.707191	-0.023582	0.707103	-0.706985	0.013314	-0.026088	-0.007267	0.999633	
4015														-0.318165	-0.080002	9.810292	-0.706544	-0.707285	-0.023302	0.707190	-0.706894	0.013530	-0.026042	-0.006919	0.999637	
4016														-0.396045	-0.149347	9.739934	-0.706261	-0.707580	-0.022915	0.707483	-0.706601	0.013498	-0.025742	-0.006679	0.999646	
4017														-0.365763	-0.046324	9.767021	-0.706351	-0.707513	-0.022223	0.707413	-0.706673	0.013449	-0.025220	-0.006221	0.999663	
4018														-0.253447	0.020598	9.778583	-0.706085	-0.707795	-0.021694	0.707695	-0.706393	0.013322	-0.024754	-0.005946	0.999676	
4019														-0.044953	-0.061056	9.703185	-0.705076	-0.708815	-0.021209	0.708712	-0.705372	0.013309	-0.024394	-0.005647	0.999686	
4020														-0.078998	0.062115	9.804238	-0.703952	-0.709973	-0.019761	0.709881	-0.704210	0.012538	-0.022817	-0.005201	0.999726	
4021														-0.205487	-0.019437	9.736062	-0.703185	-0.710779	-0.017982	0.710700	-0.703400	0.011591	-0.020887	-0.004629	0.999771	
4022														-0.579391	-0.066921	9.878400	-0.703023	-0.710954	-0.017408	0.710885	-0.703223	0.010982	-0.020049	-0.004655	0.999788	
4023														-0.502401	0.053906	9.742601	-0.702413	-0.711585	-0.016209	0.711494	-0.702592	0.011866	-0.019832	-0.003198	0.999798	
4024														-0.033730	0.054235	9.702376	-0.701552	-0.712460	-0.015050	0.712359	-0.701710	0.012194	-0.019249	-0.002166	0.999812	
4025														-0.090715	0.090926	9.688690	-0.699973	-0.714035	-0.013847	0.713952	-0.700107	0.011081	-0.017607	-0.002130	0.999843	
4026														0.097783	-0.038809	9.775324	-0.698783	-0.715234	-0.011978	0.715183	-0.698882	0.008855	-0.014704	-0.002378	0.999889	
4027														-0.226166	-0.043775	9.888051	-0.697954	-0.716055	-0.011172	0.716018	-0.698039	0.007794	-0.013380	-0.002560	0.999907	
4028														-0.035022	-0.093070	9.781175	-0.697544	-0.716458	-0.010916	0.716426	-0.697625	0.007355	-0.012885	-0.002690	0.999913	
4029														-0.120039	-0.027403	9.797005	-0.697243	-0.716753	-0.010867	0.716723	-0.697322	0.007101	-0.012668	-0.002837	0.999916	
4030														-0.055582	-0.014410	9.780042	-0.696728	-0.717252	-0.010955	0.717223	-0.696808	0.007090	-0.012719	-0.002917	0.999915	
4031														0.019512	0.052503	9.717407	-0.696402	-0.717560	-0.011451	0.717537	-0.696488	0.006785	-0.012844	-0.003491	0.999911	
4032														-0.186007	-0.071535	9.799706	-0.695928	-0.718005	-0.012372	0.718000	-0.696020	0.005610	-0.012639	-0.004979	0.999908	
4033														-0.139735	-0.016902	9.723702	-0.695571	-0.718354	-0.012211	0.718353	-0.695659	0.005278	-0.012286	-0.005101	0.999912	
4034														0.020102	-0.024933	9.719107	-0.694658	-0.719253	-0.011207	0.719264	-0.694727	0.003784	-0.010508	-0.005432	0.999930	
4035														-0.254674	-0.002074	9.845710	-0.694051	-0.719848	-0.010588	0.719869	-0.694106	0.002289	-0.008997	-0.006034	0.999941	
4036														-0.079029	-0.047762	9.752937	-0.694009	-0.719888	-0.010583	0.719910	-0.694064	0.002279	-0.008986	-0.006037	0.999941	
4037														-0.091908	-0.044099	9.782640	-0.694009	-0.719888	-0.010593	0.719910	-0.694064	0.002272	-0.008988	-0.006049	0.999941	
4038														-0.092758	-0.045039	9.753368	-0.694009	-0.719888	-0.010616	0.719910	-0.694064	0.002282	-0.009011	-0.006059	0.999941	
4039														-0.071013	-0.019813	9.766759	-0.694022	-0.719876	-0.010593	0.719897	-0.694077	0.002287	-0.008998	-0.006039	0.999941	
4040														-0.101501	-0.026904	9.797304	-0.694036	-0.719862	-0.010603	0.719884	-0.694091	0.002280	-0.009001	-0.006050	0.999941	
4041														-0.105563	-0.042053	9.768441	-0.694050	-0.719849	-0.010597	0.719870	-0.694105	0.002271	-0.008991	-0.006052	0.999941	
4042														-0.101256	-0.027561	9.782674	-0.694035	-0.719864	-0.010557	0.719885	-0.694090	0.002288	-0.008975	-0.006012	0.999942	
4043														-0.084926	-0.017673	9.737928	-0.694035	-0.719863	-0.010580	0.719885	-0.694090	0.002299	-0.008998	-0.006021	0.999941	
4044														-0.101370	-0.028129	9.768041	-0.694034	-0.719864	-0.010571	0.719886	-0.694089	0.002320	-0.009007	-0.006000	0.999941	
4045														-0.086820	-0.031656	9.767611	-0.694034	-0.719864	-0.010565	0.719886	-0.694089	0.002311	-0.008997	-0.006002	0.999942	
4046														-0.086998	-0.032262	9.752976	-0.694034	-0.719864	-0.010575	0.719886	-0.694089	0.002304	-0.008998	-0.006013	0.999941	
4047														-0.085581	-0.032036	9.782251	-0.694048	-0.719851	-0.010571	0.719872	-0.694103	0.002281	-0.008979	-0.006027	0.999942	
4048														-0.099538	-0.028902	9.782688	-0.694062	-0.719838	-0.010577	0.719859	-0.694116	0.002304	-0.009000	-0.006014	0.999941	
4049														-0.088400	-0.046623	9.782661	-0.694033	-0.719865	-0.010554	0.719887	-0.694088	0.002308	-0.008987	-0.005996	0.999942	
4050														-0.085035	-0.032838	9.767622	-0.694061	-0.719839	-0.010535	0.719860	-0.694116	0.002283	-0.008956	-0.006000	0.999942	
4051														-0.072678	-0.050197	9.796866	-0.694061	-0.719839	-0.010545	0.719860	-0.694116	0.002276	-0.008958	-0.006011	0.999942	
4052														-0.099057	-0.030216	9.753429	-0.694061	-0.719840	-0.010520	0.719861	-0.694115	0.002295	-0.008954	-0.005980	0.999942	
4053														-0.098681	-0.030214	9.753433	-0.694046	-0.719854	-0.010498	0.719875	-0.694100	0.002299	-0.008941	-0.005961	0.999942	
4054														-0.115364	-0.040954	9.768917	-0.694046	-0.719854	-0.010492	0.719875	-0.694100	0.002290	-0.008931	-0.005963	0.999942	
4055														-0.100557	-0.044562	9.768483	-0.694046	-0.719855	-0.010458	0.719876	-0.694099	0.002262	-0.008887	-0.005959	0.999943	
4056														-0.114396	-0.041340	9.768927	-0.694060	-0.719842	-0.010464	0.719862	-0.694113	0.002286	-0.008908	-0.005946	0.999943	
4057														-0.113521	-0.041255	9.783566	-0.694032	-0.719869	-0.010445	0.719890	-0.694085	0.002259	-0.008876	-0.005951	0.999943	
4058														-0.082831	-0.034906	9.738373	-0.694031	-0.719869	-0.010453	0.719890	-0.694085	0.002268	-0.008888	-0.005951	0.999943	
4059														-0.098641	-0.045197	9.783129	-0.694045	-0.719855	-0.010462	0.719876	-0.694099	0.002261	-0.008890	-0.005962	0.999943	
4060														-0.081681	-0.035168	9.753012	-0.694045	-0.719856	-0.010441	0.719877	-0.694098	0.002251	-0.008868	-0.005955	0.999943	
4061														-0.094575	-0.031354	9.782730	-0.694045	-0.719856	-0.010447	0.719877	-0.694098	0.002274	-0.008888	-0.005942	0.999943	
4062														-0.079755	-0.034501	9.796923	-0.694045	-0.719856	-0.010446	0.719877	-0.694098	0.002276	-0.008889	-0.005941	0.999943	
4063														-0.098427	-0.046065	9.768498	-0.694045	-0.719856	-0.010467	0.719877	-0.694098	0.002301	-0.008922	-0.005938	0.999943	
4064														-0.095332	-0.032188	9.753460	-0.694072	-0.719830	-0.010429	0.719851	-0.694125	0.002304	-0.008898	-0.005908	0.999943	
4065														-0.097599	-0.046273	9.768505	-0.694044	-0.719857	-0.010410	0.719878	-0.694097	0.002278	-0.008866	-0.005913	0.999943	
4066														-0.094269	-0.032698	9.753468	-0.694044	-0.719857	-0.010422	0.719878	-0.694097	0.002256	-0.008858	-0.005937	0.999943	
4067														-0.069386	-0.054344	9.738345	-0.694044	-0.719857	-0.010430	0.719878	-0.694097	0.002265	-0.008869	-0.005936	0.999943	
4068														-0.096113	-0.046961	9.783146	-0.694058	-0.719844	-0.010437	0.719864	-0.694111	0.002274	-0.008881	-0.005935	0.999943	
4069														-0.065079	-0.040330	9.752578	-0.694072	-0.719830	-0.010446	0.719851	-0.694125	0.002267	-0.008883	-0.005946	0.999943	
4070														-0.110939	-0.044647	9.754324	-0.694071	-0.719831	-0.010437	0.719851	-0.694124	0.002289	-0.008892	-0.005924	0.999943	
4071														-0.090387	-0.019825	9.738436	-0.694070	-0.719831	-0.010440	0.719852	-0.694124	0.002328	-0.008922	-0.005900	0.999943	
4072														-0.095903	-0.047826	9.768514	-0.694070	-0.719832	-0.010432	0.719852	-0.694123	0.002334	-0.008921	-0.005890	0.999943	
4073														-0.092098	-0.033894	9.768115	-0.694084	-0.719818	-0.010431	0.719839	-0.694138	0.002296	-0.008893	-0.005915	0.999943	
4074														-0.108793	-0.044855	9.783604	-0.694056	-0.719845	-0.010438	0.719866	-0.694109	0.002303	-0.008903	-0.005915	0.999943	
4075														-0.087677	-0.019914	9.782353	-0.694042	-0.719859	-0.010444	0.719880	-0.694095	0.002327	-0.008924	-0.005903	0.999943	
4076														-0.095270	-0.049233	9.753884	-0.694042	-0.719859	-0.010453	0.719880	-0.694095	0.002320	-0.008926	-0.005915	0.999943	
4077														-0.091087	-0.034945	9.768121	-0.694041	-0.719859	-0.010446	0.719880	-0.694095	0.002327	-0.008925	-0.005905	0.999943	
4078														-0.076488	-0.038522	9.767672	-0.694041	-0.719860	-0.010440	0.719880	-0.694095	0.002318	-0.008915	-0.005907	0.999943	
4079														-0.075561	-0.038497	9.782310	-0.694055	-0.719846	-0.010434	0.719867	-0.694108	0.002310	-0.008905	-0.005908	0.999943	
4080														-0.103821	-0.032054	9.783215	-0.694027	-0.719873	-0.010457	0.719894	-0.694080	0.002320	-0.008928	-0.005918	0.999943	
4081														-0.104094	-0.032431	9.768582	-0.694040	-0.719861	-0.010417	0.719881	-0.694093	0.002338	-0.008913	-0.005876	0.999943	
4082														-0.103686	-0.032587	9.768585	-0.694040	-0.719861	-0.010428	0.719881	-0.694094	0.002316	-0.008906	-0.005899	0.999943	
4083														-0.089053	-0.036325	9.768134	-0.694040	-0.719861	-0.010422	0.719881	-0.694093	0.002308	-0.008895	-0.005901	0.999943	
4084														-0.106857	-0.047799	9.754354	-0.694054	-0.719847	-0.010432	0.719868	-0.694107	0.002302	-0.008898	-0.005912	0.999943	
4085														-0.088425	-0.036881	9.768138	-0.694054	-0.719848	-0.010424	0.719868	-0.694107	0.002308	-0.008897	-0.005902	0.999943	
4086														-0.087539	-0.036802	9.782776	-0.694054	-0.719848	-0.010418	0.719868	-0.694107	0.002300	-0.008887	-0.005903	0.999943	
4087														-0.102727	-0.034287	9.753960	-0.694039	-0.719861	-0.010454	0.719882	-0.694093	0.002327	-0.008932	-0.005910	0.999943	
4088														-0.087118	-0.037339	9.782778	-0.694067	-0.719835	-0.010420	0.719855	-0.694121	0.002301	-0.008889	-0.005904	0.999943	
4089														-0.090558	-0.052086	9.768544	-0.694067	-0.719835	-0.010427	0.719855	-0.694120	0.002309	-0.008900	-0.005903	0.999943	
4090														-0.101155	-0.034718	9.768605	-0.694053	-0.719848	-0.010422	0.719869	-0.694106	0.002300	-0.008890	-0.005905	0.999943	
4091														-0.086557	-0.038289	9.768149	-0.694081	-0.719822	-0.010413	0.719842	-0.694134	0.002308	-0.008890	-0.005894	0.999943	
4092														-0.098279	-0.021421	9.738940	-0.694066	-0.719836	-0.010421	0.719856	-0.694120	0.002316	-0.008901	-0.005894	0.999943	
4093														-0.073444	-0.042988	9.723785	-0.694080	-0.719822	-0.010430	0.719842	-0.694134	0.002310	-0.008903	-0.005904	0.999943	
4094														-0.102912	-0.049678	9.783645	-0.694066	-0.719836	-0.010438	0.719856	-0.694120	0.002319	-0.008914	-0.005904	0.999943	
4095														-0.074166	-0.056610	9.782727	-0.694066	-0.719836	-0.010430	0.719856	-0.694119	0.002326	-0.008914	-0.005894	0.999943	
4096														-0.082899	-0.025630	9.738489	-0.694065	-0.719837	-0.010392	0.719857	-0.694118	0.002328	-0.008889	-0.005865	0.999943	
4097														-0.084734	-0.039642	9.768160	-0.694080	-0.719823	-0.010420	0.719843	-0.694133	0.002294	-0.008884	-0.005909	0.999943	
4098														-0.082179	-0.026303	9.738493	-0.694065	-0.719837	-0.010410	0.719857	-0.694118	0.002315	-0.008893	-0.005887	0.999943	
4099														-0.109844	-0.019543	9.754056	-0.694066	-0.719836	-0.010422	0.719857	-0.694119	0.002294	-0.008885	-0.005910	0.999943	
4100														-0.069633	-0.043971	9.767701	-0.694079	-0.719823	-0.010429	0.719844	-0.694133	0.002303	-0.008897	-0.005909	0.999943	
4101														-0.068951	-0.043870	9.782337	-0.694079	-0.719823	-0.010434	0.719844	-0.694132	0.002327	-0.008918	-0.005896	0.999943	
4102														-0.098391	-0.037874	9.753992	-0.694078	-0.719824	-0.010441	0.719844	-0.694132	0.002336	-0.008929	-0.005895	0.999943	
4103														-0.091331	-0.045254	9.563260	-0.694092	-0.719809	-0.010522	0.719830	-0.694147	0.002370	-0.009010	-0.005929	0.999942	
4104														-0.098016	-0.050965	9.871462	-0.694093	-0.719808	-0.010605	0.719828	-0.694148	0.002390	-0.009081	-0.005975	0.999941	
4105														-0.162652	-0.031225	10.049406	-0.694078	-0.719822	-0.010569	0.719843	-0.694133	0.002377	-0.009047	-0.005958	0.999941	
4106														-0.116085	-0.012862	9.475585	-0.694078	-0.719822	-0.010550	0.719843	-0.694133	0.002351	-0.009016	-0.005962	0.999942	
4107														-0.001742	-0.077696	9.751128	-0.694078	-0.719821	-0.010616	0.719842	-0.694134	0.002384	-0.009084	-0.005987	0.999941	
4108														-0.057907	-0.076709	9.870460	-0.694064	-0.719835	-0.010638	0.719856	-0.694120	0.002394	-0.009107	-0.005996	0.999941	
4109														-0.207565	0.013675	9.698376	-0.694064	-0.719835	-0.010647	0.719856	-0.694120	0.002388	-0.009109	-0.006007	0.999940	
4110														-0.093759	-0.038839	9.871069	-0.694064	-0.719834	-0.010698	0.719855	-0.694120	0.002418	-0.009166	-0.006023	0.999940	
4111														-0.009821	-0.047543	9.736165	-0.694064	-0.719834	-0.010705	0.719855	-0.694120	0.002427	-0.009178	-0.006022	0.999940	
4112														-0.139357	-0.018400	9.696446	-0.694064	-0.719834	-0.010701	0.719855	-0.694120	0.002404	-0.009158	-0.006035	0.999940	
4113														-0.168497	-0.025047	9.770944	-0.694078	-0.719819	-0.010782	0.719841	-0.694135	0.002438	-0.009239	-0.006069	0.999939	
4114														-0.082064	-0.045096	9.797419	-0.694049	-0.719847	-0.010789	0.719868	-0.694107	0.002446	-0.009250	-0.006069	0.999939	
4115														-0.069724	-0.049632	9.738412	-0.694063	-0.719834	-0.010764	0.719855	-0.694120	0.002467	-0.009247	-0.006036	0.999939	
4116														-0.114990	-0.053782	9.754835	-0.694049	-0.719847	-0.010791	0.719868	-0.694106	0.002448	-0.009252	-0.006069	0.999939	
4117														-0.111991	-0.052790	9.828016	-0.694049	-0.719847	-0.010782	0.719869	-0.694106	0.002454	-0.009251	-0.006059	0.999939	
4118														-0.068850	-0.050382	9.738414	-0.694062	-0.719834	-0.010774	0.719856	-0.694119	0.002462	-0.009251	-0.006047	0.999939	
4119														-0.095945	-0.043162	9.768624	-0.694047	-0.719849	-0.010750	0.719870	-0.694105	0.002481	-0.009248	-0.006017	0.999939	
4120														-0.109994	-0.039939	9.769093	-0.694047	-0.719849	-0.010772	0.719870	-0.694105	0.002492	-0.009271	-0.006025	0.999939	
4121														-0.109620	-0.039932	9.769097	-0.694060	-0.719837	-0.010702	0.719858	-0.694117	0.002507	-0.009233	-0.005964	0.999940	
4122														-0.092681	-0.029523	9.738974	-0.694060	-0.719837	-0.010709	0.719858	-0.694117	0.002515	-0.009244	-0.005963	0.999939	
4123														-0.109070	-0.040272	9.769102	-0.694046	-0.719850	-0.010748	0.719871	-0.694104	0.002513	-0.009269	-0.005993	0.999939	
4124														-0.091899	-0.030037	9.753609	-0.694046	-0.719850	-0.010755	0.719871	-0.694103	0.002522	-0.009281	-0.005992	0.999939	
4125														-0.094512	-0.044266	9.768633	-0.694032	-0.719864	-0.010763	0.719884	-0.694089	0.002531	-0.009292	-0.005992	0.999939	
4126														-0.079421	-0.047610	9.782799	-0.694032	-0.719864	-0.010757	0.719885	-0.694089	0.002523	-0.009283	-0.005993	0.999939	
4127														-0.076773	-0.034150	9.753144	-0.694045	-0.719851	-0.010751	0.719871	-0.694103	0.002515	-0.009273	-0.005994	0.999939	
4128														-0.097926	-0.059880	9.739753	-0.694031	-0.719864	-0.010760	0.719885	-0.694089	0.002509	-0.009275	-0.006005	0.999939	
4129														-0.095954	-0.059496	9.783661	-0.694032	-0.719864	-0.010771	0.719885	-0.694089	0.002488	-0.009267	-0.006028	0.999939	
4130														-0.089543	-0.031708	9.768256	-0.694046	-0.719850	-0.010796	0.719871	-0.694104	0.002484	-0.009281	-0.006047	0.999939	
4131														-0.089369	-0.032049	9.768256	-0.694046	-0.719850	-0.010803	0.719871	-0.694103	0.002493	-0.009293	-0.006046	0.999939	
4132														-0.106766	-0.043082	9.769116	-0.694045	-0.719851	-0.010793	0.719872	-0.694103	0.002515	-0.009302	-0.006023	0.999939	
4133														-0.109302	-0.057165	9.784138	-0.694030	-0.719865	-0.010784	0.719886	-0.694088	0.002523	-0.009301	-0.006012	0.999939	
4134														-0.105755	-0.043046	9.783755	-0.694030	-0.719865	-0.010790	0.719886	-0.694088	0.002547	-0.009323	-0.006000	0.999939	
4135														-0.114230	-0.011946	9.754193	-0.694030	-0.719865	-0.010800	0.719886	-0.694088	0.002541	-0.009325	-0.006011	0.999938	
4136														-0.077887	-0.050879	9.753535	-0.694044	-0.719852	-0.010808	0.719872	-0.694102	0.002536	-0.009327	-0.006020	0.999938	
4137														-0.103144	-0.030386	9.739472	-0.694057	-0.719839	-0.010771	0.719860	-0.694115	0.002524	-0.009293	-0.006002	0.999939	
4138														-0.070351	-0.022840	9.752774	-0.694044	-0.719852	-0.010796	0.719873	-0.694101	0.002520	-0.009308	-0.006023	0.999939	
4139														-0.090552	-0.047968	9.768653	-0.694085	-0.719812	-0.010786	0.719833	-0.694143	0.002543	-0.009318	-0.005999	0.999939	
4140														-0.087459	-0.034115	9.753637	-0.694071	-0.719826	-0.010779	0.719847	-0.694128	0.002535	-0.009307	-0.006000	0.999939	
4141														-0.100864	-0.030751	9.768753	-0.694070	-0.719827	-0.010785	0.719847	-0.694128	0.002545	-0.009318	-0.005997	0.999939	
4142														-0.089217	-0.048337	9.783292	-0.694084	-0.719813	-0.010792	0.719834	-0.694142	0.002554	-0.009330	-0.005996	0.999938	
4143														-0.088856	-0.048432	9.783295	-0.694097	-0.719801	-0.010754	0.719821	-0.694155	0.002558	-0.009306	-0.005966	0.999939	
4144														-0.089661	-0.049099	9.754026	-0.694097	-0.719801	-0.010776	0.719821	-0.694155	0.002569	-0.009329	-0.005974	0.999939	
4145														-0.085634	-0.034866	9.768280	-0.694097	-0.719801	-0.010784	0.719821	-0.694155	0.002578	-0.009341	-0.005973	0.999939	
4146														-0.082566	-0.021225	9.753265	-0.694097	-0.719800	-0.010795	0.719821	-0.694155	0.002557	-0.009334	-0.005995	0.999938	
4147														-0.102657	-0.046372	9.769145	-0.694110	-0.719788	-0.010784	0.719808	-0.694169	0.002580	-0.009343	-0.005972	0.999939	
4148														-0.099057	-0.032201	9.768767	-0.694110	-0.719788	-0.010776	0.719808	-0.694168	0.002587	-0.009342	-0.005961	0.999939	
4149														-0.102096	-0.046602	9.769149	-0.694124	-0.719775	-0.010768	0.719795	-0.694182	0.002594	-0.009342	-0.005950	0.999939	
4150														-0.117285	-0.044111	9.740361	-0.694110	-0.719788	-0.010807	0.719808	-0.694168	0.002593	-0.009368	-0.005980	0.999938	
4151														-0.079860	-0.021647	9.797178	-0.694109	-0.719788	-0.010828	0.719808	-0.694168	0.002619	-0.009401	-0.005976	0.999938	
4152														-0.101766	-0.047507	9.769148	-0.694109	-0.719788	-0.010819	0.719808	-0.694168	0.002625	-0.009400	-0.005966	0.999938	
4153														-0.084498	-0.037156	9.753652	-0.694123	-0.719774	-0.010843	0.719794	-0.694182	0.002622	-0.009414	-0.005985	0.999938	
4154														-0.083209	-0.036980	9.782923	-0.694123	-0.719775	-0.010850	0.719795	-0.694182	0.002630	-0.009425	-0.005984	0.999938	
4155														-0.083592	-0.037579	9.768288	-0.694137	-0.719761	-0.010874	0.719781	-0.694196	0.002628	-0.009440	-0.006003	0.999937	
4156														-0.081087	-0.024191	9.738640	-0.694123	-0.719774	-0.010868	0.719795	-0.694182	0.002619	-0.009430	-0.006005	0.999938	
4157														-0.082855	-0.038154	9.768292	-0.694123	-0.719775	-0.010847	0.719795	-0.694182	0.002609	-0.009408	-0.005997	0.999938	
4158														-0.085239	-0.052419	9.783307	-0.694123	-0.719775	-0.010856	0.719795	-0.694182	0.002603	-0.009410	-0.006007	0.999938	
4159														-0.098742	-0.049054	9.798429	-0.694108	-0.719789	-0.010862	0.719809	-0.694167	0.002627	-0.009431	-0.005994	0.999938	
4160														-0.068179	-0.042532	9.753175	-0.694095	-0.719802	-0.010844	0.719823	-0.694153	0.002587	-0.009390	-0.006010	0.999938	
4161														-0.081622	-0.039124	9.768298	-0.694079	-0.719816	-0.010860	0.719836	-0.694139	0.002643	-0.009441	-0.005983	0.999938	
4162														-0.096443	-0.036142	9.754150	-0.694079	-0.719817	-0.010867	0.719837	-0.694138	0.002652	-0.009452	-0.005981	0.999937	
4163														-0.106001	-0.018326	9.783534	-0.694065	-0.719830	-0.010875	0.719850	-0.694125	0.002646	-0.009454	-0.005992	0.999937	
4164														-0.094746	-0.036246	9.783424	-0.694065	-0.719830	-0.010870	0.719850	-0.694124	0.002639	-0.009444	-0.005993	0.999937	
4165														-0.095109	-0.036632	9.768790	-0.694066	-0.719830	-0.010869	0.719850	-0.694125	0.002641	-0.009445	-0.005991	0.999937	
4166														-0.107113	-0.019698	9.739633	-0.694065	-0.719830	-0.010890	0.719850	-0.694125	0.002653	-0.009469	-0.005998	0.999937	
4167														-0.098682	-0.051558	9.754531	-0.694079	-0.719817	-0.010868	0.719837	-0.694138	0.002643	-0.009447	-0.005989	0.999937	
4168														-0.080213	-0.040438	9.768305	-0.694050	-0.719845	-0.010855	0.719865	-0.694109	0.002680	-0.009463	-0.005954	0.999937	
4169														-0.084521	-0.055279	9.739410	-0.694078	-0.719818	-0.010861	0.719838	-0.694137	0.002689	-0.009475	-0.005952	0.999937	
4170														-0.090789	-0.023147	9.768422	-0.694050	-0.719845	-0.010869	0.719865	-0.694109	0.002697	-0.009486	-0.005952	0.999937	
4171														-0.079637	-0.041052	9.768307	-0.694064	-0.719832	-0.010878	0.719851	-0.694123	0.002691	-0.009488	-0.005963	0.999937	
4172														-0.108428	-0.034961	9.754655	-0.694077	-0.719818	-0.010885	0.719838	-0.694137	0.002685	-0.009489	-0.005972	0.999937	
4173														-0.100433	-0.036527	9.772705	-0.694077	-0.719819	-0.010893	0.719838	-0.694137	0.002694	-0.009500	-0.005971	0.999937	
4174														-0.092439	-0.038093	9.790754	-0.694076	-0.719819	-0.010901	0.719839	-0.694136	0.002702	-0.009512	-0.005971	0.999937	
4175														-0.106540	-0.035303	9.783931	-0.694077	-0.719818	-0.010895	0.719838	-0.694137	0.002683	-0.009494	-0.005981	0.999937	
4176														-0.091996	-0.038897	9.783440	-0.694090	-0.719805	-0.010899	0.719825	-0.694150	0.002707	-0.009514	-0.005967	0.999937	
4177														-0.078180	-0.042778	9.768311	-0.694076	-0.719819	-0.010923	0.719838	-0.694136	0.002702	-0.009527	-0.005987	0.999937	
4178														-0.120193	-0.032846	9.784429	-0.694048	-0.719846	-0.010931	0.719866	-0.694108	0.002712	-0.009539	-0.005987	0.999937	
4179														-0.091901	-0.039992	9.768808	-0.694062	-0.719833	-0.010909	0.719853	-0.694122	0.002703	-0.009518	-0.005977	0.999937	
4180														-0.109611	-0.051478	9.755042	-0.694048	-0.719846	-0.010919	0.719866	-0.694108	0.002681	-0.009509	-0.006000	0.999937	
4181														-0.091686	-0.040874	9.754177	-0.694048	-0.719846	-0.010912	0.719866	-0.694108	0.002689	-0.009510	-0.005989	0.999937	
4182														-0.090199	-0.040583	9.783450	-0.694047	-0.719847	-0.010906	0.719867	-0.694107	0.002682	-0.009500	-0.005989	0.999937	
4183														-0.106375	-0.038435	9.725408	-0.694047	-0.719847	-0.010896	0.719867	-0.694107	0.002689	-0.009499	-0.005978	0.999937	
4184														-0.098250	-0.039861	9.747114	-0.694053	-0.719841	-0.010903	0.719861	-0.694113	0.002705	-0.009515	-0.005971	0.999937	
4185														-0.090124	-0.041287	9.768819	-0.694060	-0.719835	-0.010909	0.719854	-0.694120	0.002721	-0.009531	-0.005965	0.999937	
4186														-0.104038	-0.038256	9.769319	-0.694046	-0.719848	-0.010902	0.719868	-0.694106	0.002717	-0.009522	-0.005962	0.999937	
4187														-0.106971	-0.052780	9.769692	-0.694060	-0.719834	-0.010896	0.719854	-0.694120	0.002710	-0.009513	-0.005962	0.999937	
4188														-0.086184	-0.028169	9.753821	-0.694047	-0.719848	-0.010892	0.719868	-0.694106	0.002686	-0.009494	-0.005977	0.999937	
4189														-0.106665	-0.053779	9.755062	-0.694033	-0.719861	-0.010902	0.719881	-0.694092	0.002664	-0.009485	-0.005999	0.999937	
4190														-0.102436	-0.039691	9.769330	-0.694032	-0.719861	-0.010910	0.719881	-0.694092	0.002657	-0.009485	-0.006010	0.999937	
4191														-0.102728	-0.040291	9.754696	-0.694032	-0.719861	-0.010920	0.719881	-0.694092	0.002652	-0.009488	-0.006021	0.999937	
4192														-0.101784	-0.040517	9.769334	-0.694047	-0.719847	-0.010932	0.719868	-0.694106	0.002615	-0.009470	-0.006054	0.999937	
4193														-0.084333	-0.030158	9.753831	-0.694046	-0.719848	-0.010909	0.719868	-0.694106	0.002621	-0.009458	-0.006034	0.999937	
4194														-0.118489	-0.051709	9.770213	-0.694032	-0.719862	-0.010870	0.719882	-0.694091	0.002638	-0.009444	-0.005994	0.999937	
4195														-0.097216	-0.026628	9.768978	-0.694045	-0.719849	-0.010878	0.719869	-0.694105	0.002632	-0.009445	-0.006004	0.999937	
4196														-0.099737	-0.040941	9.783981	-0.694045	-0.719849	-0.010885	0.719869	-0.694104	0.002642	-0.009457	-0.006002	0.999937	
4197														-0.083013	-0.030755	9.753841	-0.694045	-0.719850	-0.010878	0.719870	-0.694104	0.002635	-0.009448	-0.006002	0.999937	
4198														-0.100199	-0.041937	9.754716	-0.694058	-0.719837	-0.010872	0.719857	-0.694118	0.002629	-0.009439	-0.006001	0.999937	
4199														-0.116822	-0.052979	9.770226	-0.694072	-0.719823	-0.010883	0.719843	-0.694132	0.002609	-0.009432	-0.006023	0.999937	
4200														-0.067185	-0.034874	9.767974	-0.694072	-0.719823	-0.010904	0.719843	-0.694132	0.002621	-0.009456	-0.006030	0.999937	
4201														-0.094986	-0.028241	9.783624	-0.694072	-0.719823	-0.010910	0.719843	-0.694131	0.002631	-0.009467	-0.006027	0.999937	
4202														-0.098703	-0.042981	9.769355	-0.694072	-0.719823	-0.010918	0.719843	-0.694132	0.002641	-0.009480	-0.006026	0.999937	
4203														-0.079673	-0.031833	9.797754	-0.694058	-0.719836	-0.010912	0.719857	-0.694118	0.002633	-0.009470	-0.006028	0.999937	
4204														-0.099005	-0.043945	9.740091	-0.694058	-0.719837	-0.010878	0.719857	-0.694117	0.002607	-0.009427	-0.006021	0.999937	
4205														-0.064874	-0.035871	9.782616	-0.694058	-0.719837	-0.010870	0.719858	-0.694117	0.002599	-0.009416	-0.006021	0.999938	
4206														-0.079462	-0.032965	9.768493	-0.694057	-0.719838	-0.010876	0.719858	-0.694117	0.002623	-0.009437	-0.006009	0.999937	
4207														-0.096959	-0.044116	9.769367	-0.694057	-0.719837	-0.010898	0.719858	-0.694117	0.002634	-0.009460	-0.006017	0.999937	
4208														-0.092868	-0.029851	9.783639	-0.694085	-0.719811	-0.010890	0.719831	-0.694144	0.002642	-0.009461	-0.006005	0.999937	
4209														-0.093321	-0.030368	9.769005	-0.694085	-0.719810	-0.010927	0.719831	-0.694145	0.002655	-0.009496	-0.006022	0.999937	
4210														-0.110808	-0.041410	9.769880	-0.694112	-0.719785	-0.010898	0.719805	-0.694171	0.002692	-0.009503	-0.005976	0.999937	
4211														-0.081357	-0.047943	9.783494	-0.694098	-0.719798	-0.010894	0.719818	-0.694157	0.002669	-0.009484	-0.005989	0.999937	
4212														-0.106722	-0.027515	9.769524	-0.694083	-0.719812	-0.010886	0.719832	-0.694143	0.002676	-0.009482	-0.005979	0.999937	
4213														-0.094918	-0.045128	9.784011	-0.694097	-0.719799	-0.010894	0.719819	-0.694157	0.002670	-0.009484	-0.005989	0.999937	
4214														-0.088561	-0.017089	9.768653	-0.694096	-0.719800	-0.010885	0.719820	-0.694156	0.002679	-0.009484	-0.005976	0.999937	
4215														-0.094332	-0.045631	9.784014	-0.694082	-0.719813	-0.010894	0.719833	-0.694142	0.002672	-0.009485	-0.005988	0.999937	
4216														-0.123142	-0.039559	9.770409	-0.694069	-0.719826	-0.010902	0.719846	-0.694128	0.002665	-0.009486	-0.005998	0.999937	
4217														-0.109819	-0.043663	9.740626	-0.694068	-0.719827	-0.010909	0.719847	-0.694128	0.002675	-0.009498	-0.005996	0.999937	
4218														-0.097412	-0.060942	9.769744	-0.694040	-0.719855	-0.010886	0.719874	-0.694099	0.002680	-0.009485	-0.005976	0.999937	
4219														-0.076735	-0.036086	9.753874	-0.694067	-0.719829	-0.010877	0.719848	-0.694126	0.002688	-0.009485	-0.005964	0.999937	
4220														-0.078690	-0.050008	9.783506	-0.694066	-0.719829	-0.010882	0.719848	-0.694126	0.002713	-0.009506	-0.005950	0.999937	
4221														-0.093870	-0.047333	9.754754	-0.694080	-0.719816	-0.010875	0.719835	-0.694140	0.002706	-0.009497	-0.005950	0.999937	
4222														-0.102650	-0.029297	9.798818	-0.694080	-0.719816	-0.010869	0.719835	-0.694140	0.002699	-0.009488	-0.005950	0.999937	
4223														-0.088628	-0.033074	9.783668	-0.694051	-0.719844	-0.010859	0.719863	-0.694111	0.002706	-0.009485	-0.005939	0.999937	
4224														-0.121455	-0.041485	9.755796	-0.694066	-0.719829	-0.010899	0.719849	-0.694126	0.002705	-0.009512	-0.005968	0.999937	
4225														-0.088218	-0.033716	9.783670	-0.694065	-0.719830	-0.010876	0.719850	-0.694125	0.002711	-0.009501	-0.005947	0.999937	
4226														-0.092316	-0.048706	9.754762	-0.694066	-0.719830	-0.010887	0.719849	-0.694125	0.002689	-0.009492	-0.005970	0.999937	
4227														-0.073377	-0.037553	9.783153	-0.694050	-0.719844	-0.010889	0.719863	-0.694110	0.002729	-0.009523	-0.005945	0.999937	
4228														-0.105639	-0.045467	9.769919	-0.694036	-0.719858	-0.010881	0.719878	-0.694096	0.002736	-0.009522	-0.005934	0.999937	
4229														-0.102071	-0.031406	9.769562	-0.694007	-0.719886	-0.010887	0.719905	-0.694067	0.002744	-0.009532	-0.005933	0.999937	
4230														-0.099001	-0.017689	9.754571	-0.694007	-0.719886	-0.010882	0.719905	-0.694067	0.002721	-0.009512	-0.005945	0.999937	
4231														-0.101934	-0.032323	9.754932	-0.693993	-0.719899	-0.010891	0.719919	-0.694053	0.002716	-0.009514	-0.005956	0.999937	
4232														-0.105064	-0.046825	9.755291	-0.694006	-0.719887	-0.010895	0.719906	-0.694066	0.002741	-0.009535	-0.005941	0.999937	
4233														-0.072399	-0.039181	9.768525	-0.693992	-0.719900	-0.010888	0.719920	-0.694052	0.002733	-0.009524	-0.005942	0.999937	
4234														-0.100628	-0.032886	9.769572	-0.693978	-0.719914	-0.010911	0.719933	-0.694038	0.002729	-0.009537	-0.005961	0.999937	
4235														-0.082880	-0.022297	9.768692	-0.693976	-0.719915	-0.010916	0.719934	-0.694037	0.002739	-0.009548	-0.005959	0.999937	
4236														-0.086612	-0.037132	9.754414	-0.693976	-0.719915	-0.010940	0.719934	-0.694037	0.002736	-0.009562	-0.005977	0.999936	
4237														-0.104705	-0.048625	9.740659	-0.693990	-0.719901	-0.010959	0.719920	-0.694051	0.002763	-0.009595	-0.005972	0.999936	
4238														-0.087942	-0.051223	9.798674	-0.693976	-0.719915	-0.010951	0.719934	-0.694037	0.002771	-0.009595	-0.005961	0.999936	
4239														-0.114669	-0.031178	9.755466	-0.694003	-0.719888	-0.010956	0.719908	-0.694064	0.002780	-0.009606	-0.005958	0.999936	
4240														-0.102879	-0.048626	9.769933	-0.693990	-0.719902	-0.010933	0.719921	-0.694051	0.002801	-0.009604	-0.005927	0.999936	
4241														-0.088151	-0.052073	9.769411	-0.693962	-0.719929	-0.010914	0.719948	-0.694022	0.002774	-0.009572	-0.005932	0.999937	
4242														-0.071381	-0.041957	9.739262	-0.693976	-0.719915	-0.010938	0.719934	-0.694037	0.002771	-0.009586	-0.005952	0.999936	
4243														-0.116147	-0.046082	9.770466	-0.693947	-0.719943	-0.010943	0.719962	-0.694008	0.002794	-0.009606	-0.005939	0.999936	
4244														-0.097293	-0.034817	9.798855	-0.694137	-0.719764	-0.010692	0.719780	-0.694196	0.002932	-0.009532	-0.005661	0.999939	
4245														-0.098888	-0.035732	9.754952	-0.694124	-0.719776	-0.010700	0.719792	-0.694183	0.002925	-0.009533	-0.005671	0.999938	
4246														-0.099144	-0.036266	9.740319	-0.694140	-0.719760	-0.010692	0.719777	-0.694199	0.002918	-0.009523	-0.005670	0.999939	
4247														-0.112400	-0.032870	9.755486	-0.694155	-0.719747	-0.010668	0.719763	-0.694214	0.002924	-0.009511	-0.005649	0.999939	
4248														-0.112738	-0.033183	9.740854	-0.694140	-0.719761	-0.010673	0.719777	-0.694199	0.002948	-0.009531	-0.005636	0.999939	
4249														-0.111510	-0.032903	9.770124	-0.694155	-0.719746	-0.010692	0.719762	-0.694214	0.002975	-0.009564	-0.005631	0.999938	
4250														-0.101077	-0.050945	9.755313	-0.694128	-0.719772	-0.010699	0.719787	-0.694188	0.002984	-0.009574	-0.005629	0.999938	
4251														-0.078863	-0.025474	9.783347	-0.694144	-0.719757	-0.010702	0.719773	-0.694203	0.003009	-0.009595	-0.005614	0.999938	
4252														-0.097425	-0.036995	9.754962	-0.694143	-0.719758	-0.010693	0.719773	-0.694203	0.003016	-0.009594	-0.005603	0.999938	
4253														-0.099940	-0.051171	9.769951	-0.694139	-0.719762	-0.010698	0.719777	-0.694198	0.003040	-0.009614	-0.005590	0.999938	
4254														-0.096441	-0.037145	9.769599	-0.694139	-0.719762	-0.010706	0.719777	-0.694199	0.003034	-0.009616	-0.005600	0.999938	
4255														-0.097344	-0.037842	9.740332	-0.694139	-0.719762	-0.010698	0.719777	-0.694199	0.003042	-0.009615	-0.005588	0.999938	
4256														-0.081588	-0.040864	9.769071	-0.694136	-0.719764	-0.010688	0.719779	-0.694196	0.003048	-0.009614	-0.005577	0.999938	
4257														-0.113165	-0.048680	9.770489	-0.694135	-0.719765	-0.010694	0.719780	-0.694195	0.003057	-0.009624	-0.005576	0.999938	
4258														-0.112978	-0.048920	9.770490	-0.694135	-0.719765	-0.010701	0.719780	-0.694195	0.003066	-0.009636	-0.005574	0.999938	
4259														-0.110033	-0.035174	9.755505	-0.694136	-0.719765	-0.010709	0.719780	-0.694196	0.003060	-0.009637	-0.005584	0.999938	
4260														-0.095495	-0.038852	9.754974	-0.694121	-0.719778	-0.010718	0.719794	-0.694181	0.003054	-0.009638	-0.005595	0.999938	
4261														-0.095964	-0.039360	9.740339	-0.694122	-0.719777	-0.010738	0.719792	-0.694183	0.003080	-0.009671	-0.005591	0.999938	
4262														-0.083134	-0.056511	9.784059	-0.694120	-0.719779	-0.010743	0.719794	-0.694181	0.003088	-0.009680	-0.005589	0.999938	
4263														-0.107988	-0.035816	9.784780	-0.694107	-0.719792	-0.010720	0.719807	-0.694167	0.003078	-0.009657	-0.005580	0.999938	
4264														-0.079548	-0.042736	9.769080	-0.694136	-0.719765	-0.010681	0.719780	-0.694196	0.003083	-0.009634	-0.005548	0.999938	
4265														-0.108302	-0.036419	9.755520	-0.694107	-0.719792	-0.010688	0.719807	-0.694167	0.003091	-0.009644	-0.005547	0.999938	
4266														-0.092665	-0.039645	9.784253	-0.694121	-0.719778	-0.010710	0.719793	-0.694182	0.003088	-0.009658	-0.005566	0.999938	
4267														-0.107893	-0.037060	9.755522	-0.694121	-0.719779	-0.010702	0.719793	-0.694181	0.003095	-0.009657	-0.005555	0.999938	
4268														-0.075165	-0.029356	9.768736	-0.694121	-0.719779	-0.010693	0.719793	-0.694181	0.003102	-0.009656	-0.005543	0.999938	
4269														-0.107297	-0.037457	9.755527	-0.694120	-0.719780	-0.010702	0.719794	-0.694181	0.003096	-0.009657	-0.005554	0.999938	
4270														-0.081098	-0.058510	9.769436	-0.694107	-0.719792	-0.010697	0.719807	-0.694167	0.003073	-0.009637	-0.005567	0.999938	
4271														-0.106630	-0.038186	9.755532	-0.694107	-0.719792	-0.010718	0.719807	-0.694167	0.003084	-0.009660	-0.005574	0.999938	
4272														-0.102453	-0.024166	9.769820	-0.694095	-0.719804	-0.010731	0.719819	-0.694155	0.003049	-0.009643	-0.005608	0.999938	
4273														-0.076799	-0.045383	9.769090	-0.694122	-0.719777	-0.010707	0.719793	-0.694182	0.003054	-0.009631	-0.005587	0.999938	
4274														-0.101812	-0.024617	9.769826	-0.694107	-0.719792	-0.010726	0.719807	-0.694167	0.003080	-0.009663	-0.005582	0.999938	
4275														-0.077213	-0.045845	9.754456	-0.694091	-0.719807	-0.010728	0.719822	-0.694152	0.003119	-0.009692	-0.005557	0.999938	
4276														-0.091376	-0.042653	9.754997	-0.694105	-0.719794	-0.010734	0.719809	-0.694166	0.003128	-0.009703	-0.005555	0.999937	
4277														-0.104843	-0.039359	9.770173	-0.694105	-0.719794	-0.010740	0.719808	-0.694166	0.003138	-0.009714	-0.005553	0.999937	
4278														-0.089139	-0.042542	9.798902	-0.694104	-0.719794	-0.010748	0.719809	-0.694165	0.003131	-0.009715	-0.005563	0.999937	
4279														-0.086698	-0.028906	9.769290	-0.694118	-0.719782	-0.010724	0.719796	-0.694178	0.003137	-0.009703	-0.005541	0.999938	
4280														-0.106790	-0.053883	9.785160	-0.694103	-0.719796	-0.010724	0.719810	-0.694164	0.003192	-0.009742	-0.005504	0.999937	
4281														-0.075935	-0.046870	9.754461	-0.694089	-0.719809	-0.010722	0.719824	-0.694150	0.003153	-0.009712	-0.005529	0.999938	
4282														-0.089317	-0.043806	9.769639	-0.694089	-0.719809	-0.010758	0.719823	-0.694150	0.003166	-0.009747	-0.005546	0.999937	
4283														-0.099994	-0.026582	9.769839	-0.694089	-0.719809	-0.010738	0.719823	-0.694150	0.003141	-0.009715	-0.005549	0.999937	
4284														-0.089248	-0.044637	9.755008	-0.694089	-0.719809	-0.010743	0.719824	-0.694150	0.003150	-0.009725	-0.005547	0.999937	
4285														-0.116923	-0.038098	9.770733	-0.694088	-0.719809	-0.010751	0.719824	-0.694149	0.003144	-0.009726	-0.005557	0.999937	
4286														-0.078268	-0.062988	9.740175	-0.694088	-0.719810	-0.010729	0.719825	-0.694149	0.003135	-0.009704	-0.005548	0.999938	
4287														-0.084909	-0.031087	9.754670	-0.694087	-0.719811	-0.010720	0.719826	-0.694148	0.003142	-0.009703	-0.005536	0.999938	
4288														-0.098333	-0.027492	9.769853	-0.694072	-0.719826	-0.010690	0.719840	-0.694133	0.003192	-0.009718	-0.005480	0.999938	
4289														-0.091038	-0.059743	9.755362	-0.694087	-0.719812	-0.010717	0.719826	-0.694147	0.003158	-0.009712	-0.005523	0.999938	
4290														-0.112068	-0.024725	9.770405	-0.694099	-0.719800	-0.010706	0.719814	-0.694160	0.003180	-0.009720	-0.005499	0.999938	
4291														-0.100909	-0.042438	9.770202	-0.694084	-0.719814	-0.010712	0.719828	-0.694145	0.003189	-0.009731	-0.005497	0.999938	
4292														-0.100825	-0.042668	9.770202	-0.694084	-0.719814	-0.010731	0.719828	-0.694145	0.003215	-0.009763	-0.005493	0.999937	
4293														-0.086332	-0.046275	9.769654	-0.694085	-0.719814	-0.010726	0.719827	-0.694146	0.003192	-0.009744	-0.005505	0.999937	
4294														-0.083319	-0.032630	9.754679	-0.694085	-0.719813	-0.010749	0.719827	-0.694146	0.003188	-0.009756	-0.005525	0.999937	
4295														-0.097298	-0.029676	9.755230	-0.694084	-0.719814	-0.010742	0.719828	-0.694145	0.003180	-0.009746	-0.005525	0.999937	
4296														-0.099738	-0.043926	9.770207	-0.694097	-0.719801	-0.010746	0.719815	-0.694158	0.003204	-0.009766	-0.005511	0.999937	
4297														-0.100824	-0.044520	9.740940	-0.694098	-0.719801	-0.010751	0.719815	-0.694159	0.003214	-0.009776	-0.005508	0.999937	
4298														-0.110266	-0.026781	9.770420	-0.694084	-0.719814	-0.010745	0.719828	-0.694145	0.003205	-0.009766	-0.005510	0.999937	
4299														-0.098966	-0.044667	9.770212	-0.694098	-0.719801	-0.010753	0.719815	-0.694159	0.003200	-0.009767	-0.005519	0.999937	
4300														-0.095378	-0.030644	9.769873	-0.694111	-0.719787	-0.010744	0.719801	-0.694173	0.003208	-0.009767	-0.005507	0.999937	
4301														-0.094459	-0.030584	9.784510	-0.694097	-0.719802	-0.010734	0.719815	-0.694158	0.003215	-0.009765	-0.005495	0.999937	
4302														-0.112836	-0.042117	9.756139	-0.694112	-0.719788	-0.010712	0.719802	-0.694173	0.003206	-0.009744	-0.005486	0.999937	
4303														-0.098169	-0.045580	9.755589	-0.694111	-0.719788	-0.010704	0.719802	-0.694172	0.003213	-0.009743	-0.005474	0.999938	
4304														-0.097270	-0.045735	9.770224	-0.694084	-0.719814	-0.010729	0.719828	-0.694145	0.003193	-0.009746	-0.005507	0.999937	
4305														-0.083393	-0.049548	9.755036	-0.694096	-0.719802	-0.010717	0.719816	-0.694157	0.003216	-0.009755	-0.005482	0.999937	
4306														-0.096731	-0.046182	9.770227	-0.694082	-0.719816	-0.010710	0.719830	-0.694143	0.003208	-0.009743	-0.005483	0.999937	
4307														-0.100291	-0.060864	9.755935	-0.694082	-0.719817	-0.010701	0.719830	-0.694142	0.003215	-0.009742	-0.005471	0.999938	
4308														-0.089509	-0.018208	9.769554	-0.694081	-0.719817	-0.010725	0.719831	-0.694142	0.003196	-0.009745	-0.005502	0.999937	
4309														-0.099170	-0.061417	9.770569	-0.694081	-0.719817	-0.010732	0.719831	-0.694142	0.003205	-0.009756	-0.005501	0.999937	
4310														-0.107216	-0.029967	9.755818	-0.694095	-0.719804	-0.010723	0.719818	-0.694156	0.003212	-0.009756	-0.005489	0.999937	
4311														-0.081034	-0.050947	9.769677	-0.694109	-0.719790	-0.010733	0.719804	-0.694170	0.003192	-0.009748	-0.005510	0.999937	
4312														-0.091568	-0.033801	9.769899	-0.694082	-0.719816	-0.010729	0.719830	-0.694143	0.003168	-0.009727	-0.005524	0.999937	
4313														-0.091110	-0.034024	9.769903	-0.694080	-0.719818	-0.010705	0.719832	-0.694141	0.003173	-0.009714	-0.005503	0.999938	
4314														-0.108887	-0.045455	9.756169	-0.694080	-0.719818	-0.010714	0.719832	-0.694141	0.003151	-0.009706	-0.005525	0.999938	
4315														-0.077463	-0.038290	9.740079	-0.694079	-0.719819	-0.010718	0.719833	-0.694140	0.003176	-0.009726	-0.005511	0.999938	
4316														-0.108466	-0.045991	9.756171	-0.694079	-0.719819	-0.010726	0.719833	-0.694140	0.003169	-0.009727	-0.005521	0.999937	
4317														-0.073128	-0.024354	9.754378	-0.694077	-0.719821	-0.010731	0.719835	-0.694138	0.003179	-0.009737	-0.005518	0.999937	
4318														-0.090448	-0.035616	9.755276	-0.694091	-0.719807	-0.010739	0.719821	-0.694152	0.003173	-0.009738	-0.005528	0.999937	
4319														-0.103759	-0.032524	9.770474	-0.694092	-0.719806	-0.010749	0.719821	-0.694153	0.003152	-0.009730	-0.005549	0.999937	
4320														-0.085869	-0.021866	9.769579	-0.694092	-0.719806	-0.010740	0.719821	-0.694153	0.003159	-0.009730	-0.005538	0.999937	
4321														-0.107608	-0.047709	9.741546	-0.694077	-0.719821	-0.010733	0.719836	-0.694138	0.003151	-0.009718	-0.005539	0.999937	
4322														-0.089670	-0.037116	9.740650	-0.694048	-0.719848	-0.010743	0.719863	-0.694109	0.003129	-0.009709	-0.005562	0.999937	
4323														-0.113312	-0.016160	9.770716	-0.694062	-0.719836	-0.010733	0.719850	-0.694122	0.003136	-0.009708	-0.005550	0.999937	
4324														-0.116866	-0.030726	9.756420	-0.694060	-0.719837	-0.010709	0.719852	-0.694121	0.003141	-0.009694	-0.005529	0.999938	
4325														-0.091343	-0.051845	9.755624	-0.694074	-0.719824	-0.010732	0.719838	-0.694135	0.003137	-0.009708	-0.005548	0.999937	
4326														-0.083267	-0.023099	9.784226	-0.694073	-0.719825	-0.010706	0.719839	-0.694134	0.003157	-0.009704	-0.005515	0.999938	
4327														-0.076522	-0.055376	9.755061	-0.694073	-0.719825	-0.010697	0.719839	-0.694134	0.003164	-0.009702	-0.005504	0.999938	
4328														-0.085066	-0.045854	9.762638	-0.694066	-0.719832	-0.010704	0.719846	-0.694126	0.003164	-0.009708	-0.005509	0.999938	
4329														-0.093609	-0.036332	9.770214	-0.694058	-0.719839	-0.010712	0.719854	-0.694119	0.003164	-0.009713	-0.005515	0.999938	
4330														-0.100925	-0.035200	9.755868	-0.694085	-0.719814	-0.010685	0.719828	-0.694145	0.003172	-0.009700	-0.005490	0.999938	
4331														-0.103817	-0.049731	9.756203	-0.694071	-0.719827	-0.010695	0.719842	-0.694131	0.003151	-0.009692	-0.005512	0.999938	
4332														-0.113298	-0.032068	9.785709	-0.694084	-0.719814	-0.010698	0.719828	-0.694145	0.003176	-0.009712	-0.005497	0.999938	
4333														-0.102755	-0.049965	9.770839	-0.694084	-0.719814	-0.010689	0.719828	-0.694145	0.003183	-0.009711	-0.005485	0.999938	
4334														-0.102404	-0.050170	9.770842	-0.694085	-0.719814	-0.010683	0.719828	-0.694146	0.003176	-0.009701	-0.005486	0.999938	
4335														-0.098883	-0.036196	9.770511	-0.694086	-0.719813	-0.010704	0.719827	-0.694147	0.003188	-0.009725	-0.005493	0.999938	
4336														-0.086984	-0.053825	9.784907	-0.694071	-0.719827	-0.010681	0.719841	-0.694131	0.003178	-0.009702	-0.005483	0.999938	
4337														-0.112395	-0.033370	9.771089	-0.694085	-0.719814	-0.010675	0.719828	-0.694145	0.003170	-0.009692	-0.005483	0.999938	
4338														-0.090799	-0.069050	9.755973	-0.694098	-0.719801	-0.010697	0.719815	-0.694159	0.003166	-0.009705	-0.005502	0.999938	
4339														-0.094290	-0.023099	9.770190	-0.694099	-0.719801	-0.010690	0.719815	-0.694159	0.003158	-0.009694	-0.005503	0.999938	
4340														-0.111486	-0.034278	9.771096	-0.694099	-0.719800	-0.010681	0.719814	-0.694159	0.003165	-0.009693	-0.005492	0.999938	
4341														-0.096933	-0.037826	9.770525	-0.694099	-0.719801	-0.010689	0.719815	-0.694159	0.003159	-0.009694	-0.005502	0.999938	
4342														-0.082389	-0.041484	9.769952	-0.694070	-0.719828	-0.010698	0.719842	-0.694131	0.003153	-0.009695	-0.005512	0.999938	
4343														-0.115230	-0.049847	9.742164	-0.694085	-0.719814	-0.010703	0.719828	-0.694145	0.003163	-0.009706	-0.005509	0.999938	
4344														-0.095536	-0.038488	9.785162	-0.694085	-0.719814	-0.010694	0.719828	-0.694146	0.003170	-0.009705	-0.005498	0.999938	
4345														-0.097102	-0.039369	9.741264	-0.694087	-0.719812	-0.010705	0.719826	-0.694147	0.003149	-0.009697	-0.005520	0.999938	
4346														-0.096081	-0.039549	9.755900	-0.694073	-0.719825	-0.010698	0.719839	-0.694134	0.003140	-0.009686	-0.005521	0.999938	
4347														-0.096425	-0.039989	9.741268	-0.694087	-0.719811	-0.010704	0.719826	-0.694148	0.003150	-0.009697	-0.005519	0.999938	
4348														-0.107791	-0.036140	9.800382	-0.694087	-0.719811	-0.010682	0.719826	-0.694148	0.003139	-0.009675	-0.005510	0.999938	
4349														-0.098221	-0.054548	9.756235	-0.694087	-0.719812	-0.010677	0.719826	-0.694147	0.003116	-0.009655	-0.005523	0.999938	
4350														-0.093949	-0.040295	9.770544	-0.694072	-0.719827	-0.010666	0.719841	-0.694132	0.003138	-0.009662	-0.005500	0.999938	
4351														-0.108590	-0.037281	9.756492	-0.694071	-0.719828	-0.010657	0.719842	-0.694131	0.003144	-0.009661	-0.005489	0.999938	
4352														-0.111161	-0.051704	9.771452	-0.694043	-0.719854	-0.010709	0.719868	-0.694104	0.003159	-0.009707	-0.005517	0.999938	
4353														-0.107761	-0.037825	9.771125	-0.694056	-0.719841	-0.010701	0.719856	-0.694117	0.003151	-0.009696	-0.005516	0.999938	
4354														-0.110552	-0.052478	9.771454	-0.694043	-0.719854	-0.010698	0.719869	-0.694103	0.003112	-0.009666	-0.005541	0.999938	
4355														-0.089389	-0.027534	9.770225	-0.694056	-0.719842	-0.010702	0.719856	-0.694116	0.003137	-0.009687	-0.005527	0.999938	
4356														-0.095171	-0.056068	9.785509	-0.694069	-0.719829	-0.010708	0.719843	-0.694130	0.003147	-0.009698	-0.005524	0.999938	
4357														-0.105908	-0.038691	9.785768	-0.694081	-0.719817	-0.010698	0.719831	-0.694142	0.003154	-0.009697	-0.005512	0.999938	
4358														-0.087525	-0.027659	9.799495	-0.694066	-0.719831	-0.010703	0.719845	-0.694127	0.003178	-0.009717	-0.005498	0.999938	
4359														-0.077684	-0.045772	9.769971	-0.694094	-0.719805	-0.010708	0.719819	-0.694154	0.003188	-0.009728	-0.005495	0.999938	
4360														-0.095635	-0.057233	9.756245	-0.694080	-0.719818	-0.010717	0.719832	-0.694141	0.003181	-0.009729	-0.005506	0.999938	
4361														-0.116619	-0.022231	9.771401	-0.694094	-0.719805	-0.010710	0.719819	-0.694154	0.003173	-0.009718	-0.005506	0.999938	
4362														-0.105892	-0.040349	9.756510	-0.694065	-0.719832	-0.010720	0.719847	-0.694126	0.003151	-0.009709	-0.005530	0.999938	
4363														-0.108891	-0.054978	9.756834	-0.694094	-0.719805	-0.010726	0.719819	-0.694154	0.003161	-0.009721	-0.005527	0.999937	
4364														-0.091165	-0.044227	9.755927	-0.694283	-0.719624	-0.010578	0.719637	-0.694343	0.003246	-0.009680	-0.005359	0.999939	
4365														-0.100662	-0.026433	9.785458	-0.694285	-0.719623	-0.010567	0.719635	-0.694345	0.003268	-0.009689	-0.005335	0.999939	
4366														-0.105191	-0.041241	9.756514	-0.694285	-0.719622	-0.010601	0.719634	-0.694346	0.003296	-0.009733	-0.005340	0.999938	
4367														-0.089527	-0.044550	9.785194	-0.694311	-0.719596	-0.010610	0.719609	-0.694372	0.003275	-0.009724	-0.005361	0.999938	
4368														-0.103439	-0.041463	9.785783	-0.694297	-0.719611	-0.010584	0.719623	-0.694357	0.003295	-0.009720	-0.005329	0.999939	
4369														-0.107873	-0.056391	9.756838	-0.694283	-0.719624	-0.010638	0.719636	-0.694344	0.003294	-0.009757	-0.005368	0.999938	
4370														-0.099324	-0.027748	9.800094	-0.694255	-0.719651	-0.010644	0.719663	-0.694316	0.003302	-0.009767	-0.005367	0.999938	
4371														-0.086584	-0.031742	9.755610	-0.694256	-0.719650	-0.010606	0.719662	-0.694316	0.003290	-0.009732	-0.005349	0.999938	
4372														-0.084944	-0.031583	9.784879	-0.694271	-0.719635	-0.010627	0.719648	-0.694331	0.003302	-0.009755	-0.005356	0.999938	
4373														-0.088195	-0.046131	9.785198	-0.694255	-0.719650	-0.010647	0.719663	-0.694316	0.003327	-0.009787	-0.005352	0.999938	
4374														-0.086855	-0.045838	9.814465	-0.694254	-0.719651	-0.010633	0.719663	-0.694315	0.003364	-0.009804	-0.005317	0.999938	
4375														-0.114383	-0.025857	9.756793	-0.694255	-0.719651	-0.010628	0.719663	-0.694316	0.003341	-0.009784	-0.005329	0.999938	
4376														-0.103023	-0.043889	9.756525	-0.694255	-0.719650	-0.010653	0.719663	-0.694316	0.003322	-0.009787	-0.005360	0.999938	
4377														-0.102247	-0.043996	9.771158	-0.694256	-0.719649	-0.010654	0.719661	-0.694318	0.003361	-0.009817	-0.005334	0.999938	
4378														-0.098761	-0.029752	9.770842	-0.694255	-0.719651	-0.010630	0.719663	-0.694316	0.003366	-0.009803	-0.005313	0.999938	
4379														-0.084193	-0.033184	9.770253	-0.694256	-0.719649	-0.010636	0.719661	-0.694318	0.003375	-0.009814	-0.005311	0.999938	
4380														-0.098812	-0.030328	9.756214	-0.694259	-0.719647	-0.010629	0.719659	-0.694320	0.003367	-0.009803	-0.005311	0.999938	
4381														-0.086719	-0.047925	9.770576	-0.694258	-0.719648	-0.010607	0.719660	-0.694319	0.003357	-0.009780	-0.005303	0.999938	
4382														-0.090301	-0.062689	9.756263	-0.694244	-0.719662	-0.010630	0.719673	-0.694305	0.003352	-0.009793	-0.005323	0.999938	
4383														-0.082929	-0.034310	9.770260	-0.694242	-0.719663	-0.010636	0.719675	-0.694303	0.003361	-0.009803	-0.005321	0.999938	
4384														-0.079329	-0.020452	9.769945	-0.694229	-0.719676	-0.010648	0.719688	-0.694290	0.003324	-0.009785	-0.005356	0.999938	
4385														-0.097189	-0.032030	9.756224	-0.694256	-0.719649	-0.010654	0.719662	-0.694317	0.003333	-0.009796	-0.005353	0.999938	
4386														-0.124751	-0.025328	9.772050	-0.694240	-0.719666	-0.010613	0.719678	-0.694300	0.003351	-0.009780	-0.005311	0.999938	
4387														-0.097757	-0.032473	9.726966	-0.694254	-0.719652	-0.010605	0.719663	-0.694315	0.003343	-0.009769	-0.005311	0.999938	
4388														-0.098829	-0.046412	9.771182	-0.694253	-0.719652	-0.010609	0.719664	-0.694314	0.003367	-0.009789	-0.005297	0.999938	
4389														-0.110228	-0.029219	9.756831	-0.694268	-0.719639	-0.010601	0.719650	-0.694329	0.003359	-0.009778	-0.005297	0.999938	
4390														-0.092903	-0.018722	9.741290	-0.694254	-0.719652	-0.010596	0.719664	-0.694314	0.003335	-0.009757	-0.005310	0.999938	
4391														-0.076844	-0.022037	9.769961	-0.694254	-0.719652	-0.010590	0.719664	-0.694315	0.003312	-0.009736	-0.005322	0.999938	
4392														-0.096704	-0.047381	9.785825	-0.694268	-0.719639	-0.010594	0.719650	-0.694329	0.003336	-0.009757	-0.005308	0.999938	
4393														-0.093852	-0.033580	9.770878	-0.694239	-0.719666	-0.010604	0.719678	-0.694300	0.003314	-0.009747	-0.005331	0.999938	
4394														-0.092180	-0.033816	9.800145	-0.694254	-0.719652	-0.010630	0.719664	-0.694315	0.003280	-0.009741	-0.005373	0.999938	
4395														-0.093867	-0.034678	9.756248	-0.694280	-0.719626	-0.010619	0.719638	-0.694341	0.003302	-0.009749	-0.005349	0.999938	
4396														-0.111859	-0.045972	9.742531	-0.694280	-0.719627	-0.010624	0.719639	-0.694340	0.003311	-0.009760	-0.005347	0.999938	
4397														-0.107033	-0.031544	9.771485	-0.694293	-0.719614	-0.010615	0.719626	-0.694354	0.003318	-0.009759	-0.005335	0.999938	
4398														-0.092477	-0.035076	9.770886	-0.694279	-0.719628	-0.010623	0.719640	-0.694340	0.003311	-0.009759	-0.005346	0.999938	
4399														-0.078023	-0.038601	9.770285	-0.694264	-0.719642	-0.010628	0.719654	-0.694325	0.003335	-0.009779	-0.005333	0.999938	
4400														-0.091996	-0.035569	9.770888	-0.694293	-0.719614	-0.010622	0.719627	-0.694353	0.003312	-0.009759	-0.005344	0.999938	
4401														-0.092118	-0.036174	9.756259	-0.694281	-0.719626	-0.010619	0.719638	-0.694341	0.003274	-0.009729	-0.005369	0.999938	
4402														-0.105325	-0.032995	9.771499	-0.694266	-0.719640	-0.010608	0.719652	-0.694327	0.003295	-0.009736	-0.005346	0.999938	
4403														-0.091485	-0.036742	9.756263	-0.694267	-0.719639	-0.010632	0.719651	-0.694328	0.003276	-0.009740	-0.005377	0.999938	
4404														-0.108737	-0.048096	9.757180	-0.694267	-0.719639	-0.010623	0.719652	-0.694327	0.003283	-0.009738	-0.005366	0.999938	
4405														-0.093463	-0.051407	9.771210	-0.694281	-0.719625	-0.010615	0.719638	-0.694342	0.003275	-0.009727	-0.005365	0.999938	
4406														-0.093067	-0.051667	9.771213	-0.694281	-0.719626	-0.010608	0.719638	-0.694341	0.003267	-0.009716	-0.005365	0.999938	
4407														-0.104373	-0.034489	9.756879	-0.694266	-0.719641	-0.010599	0.719653	-0.694326	0.003273	-0.009714	-0.005355	0.999938	
4408														-0.106673	-0.048748	9.771824	-0.694265	-0.719642	-0.010589	0.719654	-0.694325	0.003280	-0.009712	-0.005343	0.999939	
4409														-0.092824	-0.052384	9.756586	-0.694264	-0.719643	-0.010595	0.719655	-0.694324	0.003289	-0.009723	-0.005341	0.999938	
4410														-0.102881	-0.035021	9.771518	-0.694263	-0.719643	-0.010604	0.719656	-0.694323	0.003267	-0.009714	-0.005364	0.999938	
4411														-0.092089	-0.052956	9.756590	-0.694261	-0.719646	-0.010565	0.719659	-0.694320	0.003269	-0.009688	-0.005334	0.999939	
4412														-0.091016	-0.052952	9.771225	-0.694248	-0.719658	-0.010573	0.719671	-0.694308	0.003263	-0.009689	-0.005344	0.999939	
4413														-0.102281	-0.035831	9.756896	-0.694247	-0.719660	-0.010551	0.719672	-0.694307	0.003252	-0.009666	-0.005335	0.999939	
4414														-0.087724	-0.039357	9.756287	-0.694246	-0.719660	-0.010572	0.719672	-0.694306	0.003263	-0.009688	-0.005343	0.999939	
4415														-0.086768	-0.039443	9.770921	-0.694245	-0.719661	-0.010549	0.719674	-0.694305	0.003253	-0.009666	-0.005334	0.999939	
4416														-0.084645	-0.025736	9.741349	-0.694232	-0.719673	-0.010584	0.719686	-0.694292	0.003281	-0.009709	-0.005339	0.999939	
4417														-0.100153	-0.036525	9.786165	-0.694233	-0.719673	-0.010589	0.719685	-0.694293	0.003290	-0.009720	-0.005337	0.999939	
4418														-0.101214	-0.037315	9.756902	-0.694220	-0.719684	-0.010616	0.719697	-0.694280	0.003255	-0.009713	-0.005381	0.999938	
4419														-0.114579	-0.034180	9.772148	-0.694219	-0.719686	-0.010603	0.719698	-0.694280	0.003292	-0.009731	-0.005345	0.999938	
4420														-0.096794	-0.023261	9.771230	-0.694233	-0.719672	-0.010595	0.719684	-0.694294	0.003284	-0.009720	-0.005345	0.999938	
4421														-0.086166	-0.041224	9.756294	-0.694219	-0.719686	-0.010601	0.719698	-0.694279	0.003293	-0.009730	-0.005344	0.999938	
4422														-0.089193	-0.055801	9.756601	-0.694218	-0.719686	-0.010609	0.719699	-0.694279	0.003286	-0.009730	-0.005354	0.999938	
4423														-0.095319	-0.024011	9.785869	-0.694204	-0.719700	-0.010617	0.719713	-0.694264	0.003280	-0.009731	-0.005364	0.999938	
4424														-0.087293	-0.056200	9.785866	-0.694190	-0.719713	-0.010625	0.719726	-0.694251	0.003273	-0.009732	-0.005375	0.999938	
4425														-0.113444	-0.035918	9.757531	-0.694203	-0.719701	-0.010587	0.719714	-0.694263	0.003261	-0.009697	-0.005356	0.999939	
4426														-0.095312	-0.025197	9.756615	-0.694189	-0.719715	-0.010584	0.719728	-0.694248	0.003222	-0.009667	-0.005381	0.999939	
4427														-0.097402	-0.039587	9.771556	-0.694217	-0.719688	-0.010559	0.719701	-0.694277	0.003228	-0.009654	-0.005359	0.999939	
4428														-0.100360	-0.054002	9.771864	-0.694231	-0.719675	-0.010564	0.719687	-0.694291	0.003237	-0.009664	-0.005356	0.999939	
4429														-0.097630	-0.040061	9.756927	-0.694231	-0.719675	-0.010568	0.719687	-0.694291	0.003261	-0.009684	-0.005342	0.999939	
4430														-0.085047	-0.057592	9.785878	-0.694217	-0.719688	-0.010578	0.719701	-0.694277	0.003239	-0.009675	-0.005364	0.999939	
4431														-0.092512	-0.026129	9.785890	-0.694203	-0.719701	-0.010584	0.719714	-0.694263	0.003248	-0.009686	-0.005363	0.999939	
4432														-0.096182	-0.040660	9.771564	-0.694188	-0.719716	-0.010558	0.719728	-0.694248	0.003267	-0.009681	-0.005331	0.999939	
4433														-0.095030	-0.040509	9.786201	-0.694201	-0.719705	-0.010520	0.719717	-0.694260	0.003255	-0.009646	-0.005311	0.999939	
4434														-0.093948	-0.040507	9.800836	-0.694199	-0.719706	-0.010526	0.719718	-0.694258	0.003263	-0.009656	-0.005310	0.999939	
4435														-0.092384	-0.027115	9.756638	-0.694201	-0.719704	-0.010538	0.719717	-0.694260	0.003227	-0.009638	-0.005344	0.999939	
4436														-0.084307	-0.059350	9.756623	-0.694213	-0.719693	-0.010543	0.719705	-0.694272	0.003236	-0.009649	-0.005341	0.999939	
4437														-0.095688	-0.042100	9.742313	-0.694226	-0.719681	-0.010518	0.719693	-0.694285	0.003241	-0.009635	-0.005320	0.999939	
4438														-0.094652	-0.042041	9.756948	-0.694225	-0.719681	-0.010508	0.719693	-0.694285	0.003248	-0.009633	-0.005308	0.999940	
4439														-0.093777	-0.042019	9.771582	-0.694224	-0.719682	-0.010512	0.719694	-0.694284	0.003272	-0.009653	-0.005294	0.999939	
4440														-0.094044	-0.042334	9.756953	-0.694224	-0.719682	-0.010476	0.719695	-0.694283	0.003244	-0.009608	-0.005287	0.999940	
4441														-0.093589	-0.042550	9.756956	-0.694226	-0.719681	-0.010482	0.719693	-0.694285	0.003254	-0.009619	-0.005285	0.999940	
4442														-0.093378	-0.042580	9.756958	-0.694226	-0.719681	-0.010454	0.719693	-0.694285	0.003288	-0.009625	-0.005241	0.999940	
4443														-0.104143	-0.025227	9.757283	-0.694226	-0.719681	-0.010479	0.719693	-0.694285	0.003268	-0.009628	-0.005273	0.999940	
4444														-0.081209	-0.060463	9.771268	-0.694212	-0.719695	-0.010468	0.719706	-0.694271	0.003290	-0.009635	-0.005250	0.999940	
4445														-0.106297	-0.039895	9.772220	-0.694211	-0.719695	-0.010490	0.719707	-0.694270	0.003285	-0.009648	-0.005269	0.999940	
4446														-0.089162	-0.029290	9.756662	-0.694197	-0.719709	-0.010466	0.719721	-0.694256	0.003290	-0.009634	-0.005249	0.999940	
4447														-0.093250	-0.043942	9.727704	-0.694210	-0.719697	-0.010428	0.719708	-0.694269	0.003278	-0.009599	-0.005230	0.999940	
4448														-0.088286	-0.029562	9.756669	-0.694183	-0.719723	-0.010450	0.719734	-0.694242	0.003289	-0.009622	-0.005238	0.999940	
4449														-0.116583	-0.023342	9.757928	-0.694169	-0.719736	-0.010443	0.719748	-0.694228	0.003280	-0.009610	-0.005239	0.999940	
4450														-0.103926	-0.040941	9.786865	-0.694156	-0.719748	-0.010466	0.719760	-0.694215	0.003275	-0.009623	-0.005259	0.999940	
4451														-0.086796	-0.030325	9.771305	-0.694183	-0.719722	-0.010441	0.719734	-0.694242	0.003281	-0.009610	-0.005237	0.999940	
4452														-0.090427	-0.044897	9.756976	-0.694183	-0.719723	-0.010447	0.719734	-0.694242	0.003289	-0.009620	-0.005235	0.999940	
4453														-0.103719	-0.041737	9.772240	-0.694169	-0.719736	-0.010440	0.719748	-0.694228	0.003281	-0.009609	-0.005237	0.999940	
4454														-0.117576	-0.038637	9.772875	-0.694168	-0.719738	-0.010415	0.719749	-0.694227	0.003285	-0.009595	-0.005216	0.999940	
4455														-0.085545	-0.031073	9.771314	-0.694167	-0.719738	-0.010436	0.719749	-0.694226	0.003296	-0.009617	-0.005224	0.999940	
4456														-0.087808	-0.045349	9.786247	-0.694167	-0.719739	-0.010397	0.719750	-0.694226	0.003298	-0.009591	-0.005193	0.999941	
4457														-0.101710	-0.042194	9.786883	-0.694139	-0.719766	-0.010403	0.719777	-0.694197	0.003306	-0.009601	-0.005192	0.999940	
4458														-0.102124	-0.042809	9.772252	-0.694153	-0.719752	-0.010429	0.719764	-0.694211	0.003272	-0.009595	-0.005235	0.999940	
4459														-0.084884	-0.032091	9.756691	-0.694166	-0.719740	-0.010370	0.719751	-0.694224	0.003304	-0.009577	-0.005171	0.999941	
4460														-0.081250	-0.017696	9.756396	-0.694181	-0.719726	-0.010361	0.719737	-0.694239	0.003311	-0.009576	-0.005159	0.999941	
4461														-0.104173	-0.057281	9.772562	-0.694180	-0.719727	-0.010338	0.719738	-0.694238	0.003300	-0.009552	-0.005149	0.999941	
4462														-0.084979	-0.046108	9.800893	-0.694179	-0.719728	-0.010341	0.719738	-0.694237	0.003324	-0.009572	-0.005136	0.999941	
4463														-0.100372	-0.043344	9.772268	-0.694166	-0.719740	-0.010335	0.719751	-0.694224	0.003315	-0.009561	-0.005137	0.999941	
4464														-0.096097	-0.029224	9.786603	-0.694180	-0.719727	-0.010342	0.719738	-0.694238	0.003309	-0.009561	-0.005146	0.999941	
4465														-0.100373	-0.043998	9.757641	-0.694207	-0.719701	-0.010317	0.719712	-0.694265	0.003314	-0.009548	-0.005125	0.999941	
4466														-0.113520	-0.040536	9.772915	-0.694190	-0.719718	-0.010275	0.719728	-0.694248	0.003331	-0.009531	-0.005083	0.999942	
4467														-0.081373	-0.032879	9.771343	-0.694176	-0.719732	-0.010284	0.719742	-0.694234	0.003325	-0.009532	-0.005094	0.999942	
4468														-0.081150	-0.033284	9.771344	-0.694177	-0.719730	-0.010307	0.719741	-0.694235	0.003320	-0.009545	-0.005113	0.999941	
4469														-0.098384	-0.044663	9.772282	-0.694177	-0.719730	-0.010299	0.719741	-0.694235	0.003312	-0.009534	-0.005114	0.999941	
4470														-0.112194	-0.041625	9.772926	-0.694165	-0.719742	-0.010278	0.719753	-0.694222	0.003301	-0.009511	-0.005106	0.999942	
4471														-0.101351	-0.059481	9.757956	-0.694179	-0.719729	-0.010255	0.719740	-0.694236	0.003291	-0.009488	-0.005097	0.999942	
4472														-0.091999	-0.016931	9.742436	-0.694165	-0.719743	-0.010260	0.719753	-0.694222	0.003314	-0.009508	-0.005084	0.999942	
4473														-0.122749	-0.024868	9.758651	-0.694151	-0.719756	-0.010257	0.719767	-0.694208	0.003275	-0.009477	-0.005109	0.999942	
4474														-0.096264	-0.045794	9.772298	-0.694151	-0.719757	-0.010232	0.719767	-0.694208	0.003280	-0.009464	-0.005088	0.999942	
4475														-0.084937	-0.063477	9.771953	-0.694151	-0.719756	-0.010238	0.719767	-0.694208	0.003289	-0.009474	-0.005086	0.999942	
4476														-0.093105	-0.031948	9.757375	-0.694165	-0.719743	-0.010213	0.719754	-0.694222	0.003294	-0.009461	-0.005065	0.999942	
4477														-0.107671	-0.029097	9.743392	-0.694164	-0.719744	-0.010223	0.719754	-0.694221	0.003272	-0.009452	-0.005087	0.999942	
4478														-0.095617	-0.046791	9.757676	-0.694191	-0.719718	-0.010213	0.719729	-0.694248	0.003280	-0.009451	-0.005074	0.999942	
4479														-0.092035	-0.032816	9.757382	-0.694177	-0.719732	-0.010223	0.719742	-0.694234	0.003258	-0.009442	-0.005096	0.999942	
4480														-0.094233	-0.047158	9.772311	-0.694191	-0.719718	-0.010196	0.719729	-0.694248	0.003278	-0.009438	-0.005063	0.999943	
4481														-0.106403	-0.030102	9.743403	-0.694178	-0.719731	-0.010219	0.719741	-0.694235	0.003273	-0.009450	-0.005083	0.999942	
4482														-0.093682	-0.047497	9.772315	-0.694190	-0.719719	-0.010178	0.719730	-0.694247	0.003291	-0.009434	-0.005041	0.999943	
4483														-0.090134	-0.033362	9.772023	-0.694176	-0.719733	-0.010201	0.719743	-0.694233	0.003286	-0.009447	-0.005061	0.999943	
4484														-0.107422	-0.044796	9.772966	-0.694271	-0.719640	-0.010320	0.719651	-0.694329	0.003319	-0.009555	-0.005123	0.999941	
4485														-0.088222	-0.033737	9.801287	-0.694257	-0.719653	-0.010312	0.719664	-0.694315	0.003326	-0.009553	-0.005112	0.999941	
4486														-0.106823	-0.045201	9.772970	-0.694257	-0.719654	-0.010303	0.719664	-0.694314	0.003332	-0.009551	-0.005101	0.999941	
4487														-0.103335	-0.031112	9.772679	-0.694256	-0.719654	-0.010309	0.719664	-0.694314	0.003341	-0.009562	-0.005099	0.999941	
4488														-0.092063	-0.048839	9.772324	-0.694256	-0.719655	-0.010300	0.719665	-0.694313	0.003348	-0.009560	-0.005088	0.999941	
