// Start Time: Unknown: 
// Update Rate: 60.0Hz 
// Filter Profile: human (46.1) 
// Firmware Version: 4.6.0
PacketCounter	SampleTimeFine	Year	Month	Day	Second	UTC_Nano	UTC_Year	UTC_Month	UTC_Day	UTC_Hour	UTC_Minute	UTC_Second	UTC_Valid	Acc_X	Acc_Y	Acc_Z	Mat[1][1]	Mat[2][1]	Mat[3][1]	Mat[1][2]	Mat[2][2]	Mat[3][2]	Mat[1][3]	Mat[2][3]	Mat[3][3] 
3598														-0.095249	0.081291	9.787523	-0.841911	0.539470	-0.012591	-0.539520	-0.841973	0.000683	-0.010233	0.007368	0.999920	
3599														-0.093973	0.066722	9.787657	-0.841920	0.539457	-0.012547	-0.539506	-0.841981	0.000683	-0.010196	0.007344	0.999921	
3600														-0.108400	0.065118	9.772511	-0.841920	0.539456	-0.012557	-0.539506	-0.841981	0.000680	-0.010205	0.007347	0.999921	
3601														-0.096035	0.081327	9.772871	-0.841920	0.539456	-0.012579	-0.539506	-0.841982	0.000669	-0.010230	0.007350	0.999921	
3602														-0.111795	0.079944	9.786998	-0.841928	0.539443	-0.012580	-0.539492	-0.841990	0.000655	-0.010239	0.007338	0.999921	
3603														-0.113849	0.094644	9.786854	-0.841920	0.539455	-0.012587	-0.539505	-0.841982	0.000674	-0.010234	0.007358	0.999921	
3604														-0.109805	0.065535	9.743202	-0.841929	0.539442	-0.012606	-0.539492	-0.841991	0.000685	-0.010245	0.007377	0.999920	
3605														-0.113503	0.080707	9.786972	-0.841937	0.539429	-0.012634	-0.539479	-0.841999	0.000707	-0.010256	0.007411	0.999920	
3606														-0.097516	0.067785	9.772970	-0.841937	0.539428	-0.012635	-0.539479	-0.841999	0.000693	-0.010265	0.007400	0.999920	
3607														-0.084682	0.069610	9.802749	-0.841944	0.539415	-0.012667	-0.539466	-0.842007	0.000694	-0.010291	0.007418	0.999920	
3608														-0.113448	0.066578	9.772444	-0.841944	0.539415	-0.012677	-0.539466	-0.842007	0.000692	-0.010301	0.007422	0.999919	
3609														-0.098345	0.053839	9.787726	-0.841936	0.539428	-0.012671	-0.539479	-0.841999	0.000720	-0.010281	0.007442	0.999919	
3610														-0.101862	0.082962	9.787443	-0.841945	0.539415	-0.012655	-0.539465	-0.842007	0.000680	-0.010289	0.007400	0.999920	
3611														-0.101794	0.082865	9.772799	-0.841936	0.539428	-0.012649	-0.539479	-0.841999	0.000708	-0.010269	0.007420	0.999920	
3612														-0.102112	0.083083	9.772794	-0.841937	0.539428	-0.012634	-0.539479	-0.841999	0.000723	-0.010248	0.007425	0.999920	
3613														-0.102160	0.068820	9.802205	-0.841945	0.539415	-0.012657	-0.539466	-0.842007	0.000713	-0.010273	0.007428	0.999920	
3614														-0.101343	0.068686	9.758280	-0.841945	0.539415	-0.012679	-0.539465	-0.842008	0.000701	-0.010298	0.007431	0.999919	
3615														-0.104023	0.083465	9.772771	-0.841936	0.539428	-0.012677	-0.539478	-0.841999	0.000708	-0.010293	0.007435	0.999919	
3616														-0.090531	0.085235	9.787918	-0.841953	0.539402	-0.012688	-0.539453	-0.842015	0.000706	-0.010302	0.007439	0.999919	
3617														-0.090005	0.085048	9.758636	-0.841937	0.539428	-0.012667	-0.539478	-0.841999	0.000687	-0.010295	0.007412	0.999920	
3618														-0.104214	0.068917	9.772893	-0.841961	0.539389	-0.012693	-0.539439	-0.842024	0.000655	-0.010335	0.007399	0.999919	
3619														-0.090799	0.070690	9.788043	-0.841953	0.539402	-0.012688	-0.539453	-0.842016	0.000683	-0.010315	0.007419	0.999919	
3620														-0.106161	0.083669	9.758101	-0.841953	0.539402	-0.012664	-0.539452	-0.842016	0.000686	-0.010293	0.007410	0.999920	
3621														-0.106051	0.069342	9.787515	-0.841954	0.539401	-0.012662	-0.539451	-0.842016	0.000693	-0.010288	0.007414	0.999920	
3622														-0.106587	0.069473	9.787509	-0.841946	0.539414	-0.012672	-0.539464	-0.842008	0.000691	-0.010298	0.007418	0.999919	
3623														-0.106660	0.069440	9.772863	-0.841937	0.539427	-0.012673	-0.539477	-0.842000	0.000676	-0.010307	0.007406	0.999919	
3624														-0.107336	0.069415	9.772856	-0.841945	0.539414	-0.012687	-0.539464	-0.842008	0.000652	-0.010331	0.007394	0.999919	
3625														-0.094883	0.085681	9.773229	-0.841937	0.539427	-0.012681	-0.539477	-0.842000	0.000680	-0.010311	0.007414	0.999919	
3626														-0.094740	0.085810	9.758585	-0.841937	0.539427	-0.012679	-0.539477	-0.842000	0.000687	-0.010305	0.007418	0.999919	
3627														-0.108649	0.069900	9.772838	-0.841946	0.539414	-0.012665	-0.539464	-0.842008	0.000702	-0.010285	0.007424	0.999920	
3628														-0.097277	0.086345	9.802488	-0.841937	0.539426	-0.012687	-0.539477	-0.842000	0.000691	-0.010310	0.007426	0.999919	
3629														-0.095704	0.071830	9.787988	-0.841946	0.539414	-0.012672	-0.539464	-0.842008	0.000707	-0.010289	0.007431	0.999919	
3630														-0.083266	0.088109	9.788363	-0.841954	0.539400	-0.012695	-0.539451	-0.842017	0.000696	-0.010314	0.007434	0.999919	
3631														-0.110432	0.055882	9.802231	-0.841954	0.539400	-0.012687	-0.539450	-0.842017	0.000669	-0.010322	0.007408	0.999919	
3632														-0.099034	0.086562	9.787824	-0.841946	0.539412	-0.012694	-0.539463	-0.842009	0.000688	-0.010317	0.007427	0.999919	
3633														-0.097988	0.072132	9.787963	-0.841938	0.539425	-0.012695	-0.539476	-0.842001	0.000673	-0.010326	0.007416	0.999919	
3634														-0.102663	0.079019	9.784094	-0.841934	0.539431	-0.012688	-0.539482	-0.841997	0.000674	-0.010320	0.007412	0.999919	
3635														-0.107339	0.085906	9.780226	-0.841930	0.539437	-0.012682	-0.539488	-0.841993	0.000674	-0.010314	0.007409	0.999919	
3636														-0.099581	0.072233	9.787946	-0.841938	0.539424	-0.012696	-0.539475	-0.842002	0.000651	-0.010339	0.007397	0.999919	
3637														-0.099653	0.072350	9.773300	-0.841938	0.539425	-0.012711	-0.539475	-0.842001	0.000682	-0.010335	0.007432	0.999919	
3638														-0.098676	0.058066	9.773438	-0.841929	0.539437	-0.012733	-0.539488	-0.841993	0.000671	-0.010360	0.007434	0.999919	
3639														-0.101431	0.072917	9.787922	-0.841929	0.539437	-0.012740	-0.539488	-0.841993	0.000690	-0.010355	0.007454	0.999919	
3640														-0.115897	0.071362	9.772744	-0.841921	0.539450	-0.012728	-0.539501	-0.841985	0.000684	-0.010348	0.007443	0.999919	
3641														-0.102422	0.073038	9.787911	-0.841930	0.539437	-0.012730	-0.539488	-0.841993	0.000669	-0.010357	0.007431	0.999919	
3642														-0.119110	0.086049	9.787221	-0.841946	0.539411	-0.012728	-0.539462	-0.842010	0.000676	-0.010352	0.007436	0.999919	
3643														-0.088864	0.074770	9.788436	-0.841922	0.539450	-0.012716	-0.539500	-0.841985	0.000670	-0.010346	0.007424	0.999919	
3644														-0.105000	0.087612	9.773108	-0.841922	0.539449	-0.012717	-0.539500	-0.841985	0.000655	-0.010354	0.007413	0.999919	
3645														-0.089304	0.074804	9.773788	-0.841922	0.539449	-0.012712	-0.539500	-0.841985	0.000683	-0.010335	0.007433	0.999919	
3646														-0.087022	0.045993	9.788717	-0.841931	0.539436	-0.012710	-0.539487	-0.841994	0.000690	-0.010329	0.007438	0.999919	
3647														-0.091192	0.075417	9.803053	-0.841931	0.539436	-0.012704	-0.539487	-0.841993	0.000718	-0.010309	0.007458	0.999919	
3648														-0.108249	0.102728	9.772937	-0.841923	0.539448	-0.012675	-0.539499	-0.841986	0.000688	-0.010301	0.007417	0.999919	
3649														-0.105237	0.073462	9.773233	-0.841933	0.539435	-0.012627	-0.539485	-0.841995	0.000709	-0.010249	0.007409	0.999920	
3650														-0.117471	0.042727	9.787625	-0.841932	0.539435	-0.012632	-0.539485	-0.841995	0.000673	-0.010273	0.007381	0.999920	
3651														-0.091588	0.074916	9.773766	-0.841924	0.539448	-0.012608	-0.539498	-0.841986	0.000676	-0.010252	0.007371	0.999920	
3652														-0.121547	0.071815	9.787317	-0.841933	0.539436	-0.012594	-0.539486	-0.841995	0.000692	-0.010231	0.007377	0.999920	
3653														-0.106832	0.073499	9.773216	-0.841933	0.539435	-0.012592	-0.539486	-0.841995	0.000698	-0.010226	0.007381	0.999920	
3654														-0.105030	0.058920	9.758723	-0.841933	0.539435	-0.012569	-0.539485	-0.841995	0.000701	-0.010204	0.007371	0.999921	
3655														-0.092567	0.075101	9.759112	-0.841941	0.539422	-0.012570	-0.539472	-0.842003	0.000687	-0.010213	0.007359	0.999921	
3656														-0.110884	0.088494	9.802325	-0.841925	0.539448	-0.012573	-0.539499	-0.841986	0.000727	-0.010194	0.007395	0.999921	
3657														-0.105708	0.059395	9.744068	-0.841933	0.539435	-0.012567	-0.539486	-0.841994	0.000755	-0.010175	0.007415	0.999921	
3658														-0.105723	0.045224	9.773487	-0.841933	0.539435	-0.012590	-0.539486	-0.841994	0.000744	-0.010200	0.007418	0.999920	
3659														-0.115212	0.104000	9.831423	-0.841933	0.539435	-0.012609	-0.539486	-0.841994	0.000753	-0.010211	0.007437	0.999920	
3660														-0.095608	0.076316	9.773717	-0.841933	0.539435	-0.012586	-0.539486	-0.841994	0.000757	-0.010189	0.007427	0.999921	
3661														-0.093307	0.061795	9.744588	-0.841941	0.539422	-0.012614	-0.539473	-0.842002	0.000779	-0.010201	0.007461	0.999920	
3662														-0.097178	0.076827	9.788341	-0.841941	0.539422	-0.012603	-0.539473	-0.842003	0.000774	-0.010194	0.007450	0.999920	
3663														-0.098799	0.091351	9.773545	-0.841942	0.539421	-0.012613	-0.539472	-0.842003	0.000771	-0.010204	0.007454	0.999920	
3664														-0.097056	0.076992	9.759053	-0.841941	0.539422	-0.012616	-0.539473	-0.842003	0.000812	-0.010185	0.007490	0.999920	
3665														-0.095410	0.048198	9.788629	-0.841942	0.539421	-0.012621	-0.539472	-0.842003	0.000776	-0.010209	0.007462	0.999920	
3666														-0.111496	0.060989	9.773283	-0.841942	0.539421	-0.012594	-0.539472	-0.842003	0.000800	-0.010173	0.007468	0.999920	
3667														-0.087245	0.093744	9.803347	-0.841950	0.539408	-0.012604	-0.539459	-0.842012	0.000798	-0.010182	0.007472	0.999920	
3668														-0.112487	0.061181	9.773270	-0.841942	0.539421	-0.012606	-0.539472	-0.842003	0.000783	-0.010191	0.007460	0.999920	
3669														-0.083439	0.064478	9.759732	-0.841934	0.539434	-0.012616	-0.539485	-0.841995	0.000781	-0.010201	0.007463	0.999920	
3670														-0.100176	0.077420	9.759018	-0.841926	0.539446	-0.012605	-0.539497	-0.841987	0.000775	-0.010195	0.007452	0.999920	
3671														-0.087876	0.079496	9.803478	-0.841934	0.539433	-0.012624	-0.539484	-0.841995	0.000785	-0.010206	0.007471	0.999920	
3672														-0.085528	0.064829	9.774354	-0.841935	0.539433	-0.012591	-0.539483	-0.841996	0.000776	-0.010183	0.007446	0.999920	
3673														-0.100455	0.063295	9.773794	-0.841934	0.539433	-0.012607	-0.539484	-0.841995	0.000807	-0.010179	0.007481	0.999920	
3674														-0.104413	0.092525	9.773475	-0.841918	0.539458	-0.012611	-0.539509	-0.841979	0.000771	-0.010202	0.007453	0.999920	
3675														-0.088729	0.079711	9.774182	-0.841910	0.539471	-0.012605	-0.539522	-0.841971	0.000798	-0.010182	0.007473	0.999920	
3676														-0.103663	0.078245	9.773619	-0.841918	0.539458	-0.012603	-0.539509	-0.841979	0.000805	-0.010177	0.007477	0.999920	
3677														-0.087484	0.065490	9.759689	-0.841901	0.539483	-0.012634	-0.539535	-0.841963	0.000806	-0.010202	0.007495	0.999920	
3678														-0.104823	0.078726	9.773603	-0.841902	0.539483	-0.012628	-0.539535	-0.841963	0.000834	-0.010183	0.007516	0.999920	
3679														-0.106891	0.093342	9.773441	-0.841894	0.539496	-0.012608	-0.539547	-0.841955	0.000816	-0.010175	0.007490	0.999920	
3680														-0.090006	0.065939	9.788949	-0.841919	0.539457	-0.012597	-0.539508	-0.841980	0.000811	-0.010169	0.007479	0.999920	
3681														-0.106335	0.078682	9.773587	-0.841911	0.539469	-0.012623	-0.539520	-0.841972	0.000778	-0.010208	0.007466	0.999920	
3682														-0.092906	0.080526	9.788780	-0.841911	0.539469	-0.012596	-0.539520	-0.841972	0.000803	-0.010172	0.007472	0.999920	
3683														-0.093873	0.080762	9.803412	-0.841920	0.539456	-0.012606	-0.539507	-0.841981	0.000801	-0.010182	0.007476	0.999920	
3684														-0.092752	0.080617	9.759495	-0.841920	0.539456	-0.012617	-0.539507	-0.841981	0.000799	-0.010192	0.007479	0.999920	
3685														-0.092744	0.077004	9.759530	-0.841920	0.539455	-0.012612	-0.539506	-0.841981	0.000789	-0.010194	0.007468	0.999920	
3686														-0.092736	0.073392	9.759566	-0.841920	0.539455	-0.012607	-0.539506	-0.841981	0.000778	-0.010195	0.007457	0.999920	
3687														-0.095004	0.080882	9.774114	-0.841920	0.539455	-0.012626	-0.539506	-0.841982	0.000789	-0.010205	0.007476	0.999920	
3688														-0.096627	0.081131	9.803382	-0.841937	0.539428	-0.012594	-0.539479	-0.841999	0.000781	-0.010183	0.007451	0.999920	
3689														-0.079609	0.068256	9.774831	-0.841937	0.539428	-0.012609	-0.539480	-0.841998	0.000812	-0.010179	0.007486	0.999920	
3690														-0.097482	0.081413	9.803371	-0.841938	0.539428	-0.012589	-0.539479	-0.841999	0.000794	-0.010172	0.007460	0.999920	
3691														-0.081027	0.068409	9.789460	-0.841938	0.539428	-0.012566	-0.539479	-0.841999	0.000797	-0.010151	0.007450	0.999921	
3692														-0.096016	0.066681	9.788887	-0.841938	0.539428	-0.012567	-0.539478	-0.841999	0.000782	-0.010160	0.007438	0.999921	
3693														-0.097684	0.081269	9.774084	-0.841938	0.539428	-0.012574	-0.539479	-0.841999	0.000801	-0.010155	0.007458	0.999921	
3694														-0.098812	0.081569	9.788713	-0.841938	0.539427	-0.012584	-0.539478	-0.841999	0.000799	-0.010165	0.007462	0.999920	
3695														-0.100402	0.096010	9.773912	-0.841930	0.539440	-0.012552	-0.539491	-0.841991	0.000790	-0.010143	0.007436	0.999921	
3696														-0.095697	0.052509	9.774388	-0.841930	0.539440	-0.012580	-0.539491	-0.841991	0.000812	-0.010154	0.007470	0.999921	
3697														-0.085077	0.083544	9.774633	-0.841939	0.539427	-0.012557	-0.539478	-0.841999	0.000816	-0.010133	0.007461	0.999921	
3698														-0.100066	0.081801	9.774056	-0.841931	0.539439	-0.012558	-0.539490	-0.841992	0.000801	-0.010141	0.007449	0.999921	
3699														-0.098354	0.067217	9.759574	-0.841931	0.539439	-0.012568	-0.539490	-0.841992	0.000799	-0.010151	0.007452	0.999921	
3700														-0.102462	0.082093	9.803315	-0.841931	0.539439	-0.012569	-0.539490	-0.841992	0.000784	-0.010160	0.007441	0.999921	
3701														-0.115762	0.080209	9.758823	-0.841931	0.539439	-0.012576	-0.539490	-0.841992	0.000803	-0.010156	0.007461	0.999921	
3702														-0.085500	0.069351	9.760131	-0.841923	0.539452	-0.012586	-0.539503	-0.841984	0.000800	-0.010166	0.007464	0.999920	
3703														-0.118103	0.080798	9.788079	-0.841922	0.539451	-0.012605	-0.539503	-0.841983	0.000810	-0.010176	0.007483	0.999920	
3704														-0.088983	0.084326	9.774591	-0.841914	0.539464	-0.012594	-0.539515	-0.841975	0.000804	-0.010170	0.007472	0.999920	
3705														-0.087778	0.069917	9.774749	-0.841922	0.539451	-0.012613	-0.539503	-0.841983	0.000815	-0.010181	0.007491	0.999920	
3706														-0.103397	0.082584	9.744728	-0.841923	0.539451	-0.012593	-0.539502	-0.841984	0.000797	-0.010173	0.007464	0.999920	
3707														-0.103211	0.068071	9.774161	-0.841924	0.539450	-0.012560	-0.539501	-0.841985	0.000788	-0.010150	0.007439	0.999921	
3708														-0.104185	0.068156	9.788793	-0.841924	0.539450	-0.012558	-0.539501	-0.841985	0.000794	-0.010145	0.007444	0.999921	
3709														-0.105244	0.068386	9.803423	-0.841924	0.539450	-0.012555	-0.539501	-0.841985	0.000801	-0.010139	0.007448	0.999921	
3710														-0.089971	0.069945	9.774729	-0.841908	0.539475	-0.012535	-0.539526	-0.841969	0.000783	-0.010132	0.007422	0.999921	
3711														-0.089266	0.055486	9.789525	-0.841925	0.539450	-0.012533	-0.539500	-0.841985	0.000790	-0.010126	0.007427	0.999921	
3712														-0.107768	0.082870	9.788608	-0.841900	0.539488	-0.012521	-0.539539	-0.841960	0.000783	-0.010120	0.007415	0.999921	
3713														-0.090808	0.069891	9.760079	-0.841925	0.539450	-0.012523	-0.539500	-0.841985	0.000769	-0.010129	0.007404	0.999921	
3714														-0.105860	0.068034	9.759490	-0.841909	0.539475	-0.012503	-0.539525	-0.841969	0.000751	-0.010122	0.007377	0.999922	
3715														-0.107509	0.068132	9.788757	-0.841917	0.539462	-0.012492	-0.539512	-0.841978	0.000745	-0.010115	0.007367	0.999922	
3716														-0.109133	0.082643	9.773952	-0.841926	0.539449	-0.012490	-0.539498	-0.841986	0.000753	-0.010110	0.007372	0.999922	
3717														-0.107823	0.068165	9.774111	-0.841934	0.539435	-0.012479	-0.539485	-0.841995	0.000747	-0.010104	0.007361	0.999922	
3718														-0.095523	0.084543	9.774528	-0.841918	0.539461	-0.012476	-0.539511	-0.841978	0.000753	-0.010098	0.007365	0.999922	
3719														-0.094208	0.070065	9.774688	-0.841919	0.539461	-0.012465	-0.539510	-0.841979	0.000748	-0.010092	0.007354	0.999922	
3720														-0.095362	0.070514	9.789316	-0.841901	0.539486	-0.012511	-0.539537	-0.841962	0.000794	-0.010105	0.007419	0.999921	
3721														-0.096057	0.070786	9.789307	-0.841902	0.539486	-0.012515	-0.539536	-0.841962	0.000758	-0.010129	0.007391	0.999921	
3722														-0.096580	0.070696	9.789303	-0.841910	0.539473	-0.012492	-0.539523	-0.841971	0.000762	-0.010107	0.007381	0.999922	
3723														-0.081227	0.072441	9.760618	-0.841910	0.539473	-0.012499	-0.539523	-0.841970	0.000781	-0.010102	0.007400	0.999922	
3724														-0.110173	0.054649	9.788867	-0.841902	0.539485	-0.012487	-0.539535	-0.841963	0.000775	-0.010096	0.007390	0.999922	
3725														-0.097280	0.070946	9.774652	-0.841903	0.539485	-0.012485	-0.539535	-0.841963	0.000781	-0.010091	0.007394	0.999922	
3726														-0.081502	0.058335	9.775406	-0.841902	0.539485	-0.012495	-0.539535	-0.841963	0.000779	-0.010100	0.007397	0.999922	
3727														-0.114629	0.069625	9.817953	-0.841886	0.539511	-0.012471	-0.539561	-0.841946	0.000782	-0.010078	0.007387	0.999922	
3728														-0.112082	0.055109	9.788843	-0.841886	0.539511	-0.012499	-0.539561	-0.841946	0.000804	-0.010090	0.007421	0.999922	
3729														-0.102394	0.100306	9.759655	-0.841887	0.539510	-0.012486	-0.539560	-0.841947	0.000743	-0.010111	0.007362	0.999922	
3730														-0.087290	0.087646	9.775049	-0.841903	0.539485	-0.012502	-0.539535	-0.841963	0.000775	-0.010108	0.007398	0.999922	
3731														-0.115088	0.069784	9.774016	-0.841902	0.539485	-0.012512	-0.539535	-0.841963	0.000772	-0.010118	0.007401	0.999921	
3732														-0.101719	0.071891	9.789242	-0.841902	0.539485	-0.012519	-0.539535	-0.841963	0.000791	-0.010114	0.007420	0.999921	
3733														-0.098533	0.057209	9.745500	-0.841903	0.539485	-0.012508	-0.539535	-0.841963	0.000785	-0.010107	0.007410	0.999921	
3734														-0.021945	0.009882	9.763800	-0.841993	0.539330	-0.013059	-0.539385	-0.842059	0.000826	-0.010551	0.007740	0.999914	
3735														-0.254366	0.135869	9.782585	-0.841637	0.539842	-0.014734	-0.539910	-0.841723	0.000742	-0.012001	0.008580	0.999891	
3736														-0.055636	0.136071	9.806112	-0.840729	0.541257	-0.014693	-0.541323	-0.840814	0.000656	-0.011999	0.008505	0.999892	
3737														-0.106689	0.084385	9.745635	-0.840696	0.541307	-0.014746	-0.541373	-0.840782	0.000583	-0.012083	0.008473	0.999891	
3738														-0.154826	0.107676	9.758006	-0.840740	0.541243	-0.014595	-0.541307	-0.840825	0.000569	-0.011964	0.008378	0.999893	
3739														-0.223348	0.108524	9.798817	-0.841265	0.540473	-0.012747	-0.540524	-0.841328	0.000648	-0.010375	0.007435	0.999919	
3740														-0.157827	0.006844	9.772799	-0.842027	0.539290	-0.012553	-0.539339	-0.842088	0.000662	-0.010214	0.007328	0.999921	
3741														-0.371392	0.067442	9.763313	-0.842078	0.539212	-0.012440	-0.539260	-0.842139	0.000620	-0.010142	0.007230	0.999922	
3742														0.011827	0.071509	9.794203	-0.842113	0.539161	-0.012305	-0.539210	-0.842171	0.000782	-0.009942	0.007294	0.999924	
3743														-0.165458	0.078323	9.771977	-0.842154	0.539095	-0.012327	-0.539143	-0.842214	0.000641	-0.010037	0.007186	0.999924	
3744														-0.080121	0.088725	9.790236	-0.842171	0.539069	-0.012326	-0.539116	-0.842231	0.000572	-0.010074	0.007127	0.999924	
3745														0.052202	0.090370	9.781233	-0.842188	0.539043	-0.012332	-0.539089	-0.842248	0.000536	-0.010097	0.007099	0.999924	
3746														-0.009224	0.097616	9.778632	-0.842186	0.539042	-0.012495	-0.539089	-0.842249	0.000459	-0.010277	0.007123	0.999922	
3747														-0.059986	0.121366	9.805721	-0.842284	0.538886	-0.012625	-0.538933	-0.842349	0.000336	-0.010453	0.007087	0.999920	
3748														0.005627	0.069882	9.779586	-0.842459	0.538615	-0.012517	-0.538660	-0.842523	0.000278	-0.010396	0.006977	0.999922	
3749														-0.044842	0.003728	9.777803	-0.842452	0.538628	-0.012426	-0.538673	-0.842515	0.000292	-0.010312	0.006940	0.999923	
3750														-0.128182	0.068299	9.803151	-0.842433	0.538655	-0.012571	-0.538703	-0.842496	0.000474	-0.010336	0.007171	0.999921	
3751														-0.098521	0.073534	9.775092	-0.842399	0.538706	-0.012623	-0.538755	-0.842462	0.000554	-0.010336	0.007267	0.999920	
3752														0.022602	0.019196	9.736980	-0.842140	0.539078	-0.013951	-0.539136	-0.842219	0.000462	-0.011501	0.007911	0.999903	
3753														-0.257010	0.152742	9.782617	-0.841831	0.539539	-0.014770	-0.539603	-0.841920	0.000343	-0.012250	0.008259	0.999891	
3754														-0.120840	0.098873	9.774585	-0.841755	0.539655	-0.014849	-0.539719	-0.841845	0.000382	-0.012295	0.008336	0.999890	
3755														-0.104522	0.072298	9.790228	-0.841671	0.539783	-0.014941	-0.539848	-0.841763	0.000334	-0.012396	0.008347	0.999888	
3756														-0.056364	0.034385	9.763463	-0.841272	0.540399	-0.015177	-0.540464	-0.841367	0.000221	-0.012650	0.008389	0.999885	
3757														-0.169681	0.080294	9.802003	-0.840741	0.541222	-0.015282	-0.541287	-0.840838	0.000160	-0.012764	0.008406	0.999883	
3758														-0.188219	0.107474	9.786308	-0.840659	0.541350	-0.015261	-0.541415	-0.840756	0.000139	-0.012756	0.008379	0.999884	
3759														-0.127870	0.100091	9.774483	-0.840693	0.541298	-0.015214	-0.541363	-0.840789	0.000162	-0.012704	0.008372	0.999884	
3760														-0.219990	0.118068	9.814087	-0.840936	0.540926	-0.015005	-0.540989	-0.841029	0.000201	-0.012511	0.008286	0.999887	
3761														-0.319294	0.221875	9.779414	-0.842129	0.539073	-0.014785	-0.539135	-0.842219	0.000240	-0.012323	0.008173	0.999891	
3762														0.088608	-0.066555	9.770846	-0.842543	0.538429	-0.014669	-0.538489	-0.842633	0.000201	-0.012253	0.008068	0.999892	
3763														-0.227108	0.084170	9.799286	-0.842950	0.537798	-0.014453	-0.537858	-0.843036	0.000309	-0.012018	0.008035	0.999895	
3764														-0.261783	0.137728	9.782637	-0.843758	0.536533	-0.014291	-0.536592	-0.843842	0.000343	-0.011876	0.007958	0.999898	
3765														0.035337	0.014452	9.797004	-0.844570	0.535255	-0.014270	-0.535314	-0.844653	0.000387	-0.011846	0.007966	0.999898	
3766														-0.166887	0.091418	9.787275	-0.844995	0.534584	-0.014280	-0.534644	-0.845077	0.000520	-0.011790	0.008075	0.999898	
3767														-0.139062	0.110444	9.773736	-0.845421	0.533911	-0.014224	-0.533972	-0.845502	0.000589	-0.011712	0.008093	0.999899	
3768														-0.071364	0.045755	9.777275	-0.845813	0.533290	-0.014205	-0.533350	-0.845894	0.000553	-0.011721	0.008044	0.999899	
3769														-0.272957	0.106549	9.782359	-0.846173	0.532720	-0.014173	-0.532779	-0.846254	0.000524	-0.011715	0.007995	0.999899	
3770														-0.382820	0.150248	9.777059	-0.846744	0.531813	-0.014156	-0.531873	-0.846824	0.000572	-0.011684	0.008013	0.999900	
3771														-0.413878	0.160503	9.775576	-0.847711	0.530271	-0.014088	-0.530331	-0.847790	0.000658	-0.011595	0.008029	0.999901	
3772														-0.155878	0.122163	9.772904	-0.848889	0.528389	-0.013865	-0.528448	-0.848965	0.000717	-0.011393	0.007935	0.999904	
3773														-0.275264	0.236539	9.796028	-0.850203	0.526283	-0.013429	-0.526339	-0.850274	0.000767	-0.011014	0.007720	0.999910	
3774														-0.223990	0.211465	9.783816	-0.851617	0.524005	-0.012969	-0.524058	-0.851682	0.000839	-0.010606	0.007511	0.999916	
3775														-0.234708	0.089952	9.784077	-0.853176	0.521460	-0.013026	-0.521514	-0.853242	0.000846	-0.010673	0.007515	0.999915	
3776														-0.337649	0.087291	9.750174	-0.854962	0.518531	-0.012901	-0.518582	-0.855028	0.000734	-0.010650	0.007318	0.999917	
3777														-0.237122	0.355834	9.855796	-0.856875	0.515360	-0.013004	-0.515414	-0.856941	0.000915	-0.010672	0.007487	0.999915	
3778														-0.375643	0.406547	9.732011	-0.859037	0.511747	-0.013034	-0.511801	-0.859104	0.000920	-0.010726	0.007461	0.999915	
3779														0.013749	0.353019	9.808552	-0.861215	0.508072	-0.013099	-0.508126	-0.861282	0.000975	-0.010787	0.007496	0.999914	
3780														0.085551	-0.065202	9.755497	-0.863300	0.504518	-0.013183	-0.504573	-0.863368	0.000977	-0.010889	0.007495	0.999913	
3781														0.196717	-0.042904	9.804556	-0.865152	0.501327	-0.013574	-0.501385	-0.865224	0.001012	-0.011237	0.007681	0.999907	
3782														-0.089443	0.192405	9.849102	-0.867144	0.497861	-0.013980	-0.497921	-0.867222	0.000916	-0.011668	0.007755	0.999902	
3783														-0.144964	0.420555	9.728149	-0.869837	0.493136	-0.014158	-0.493197	-0.869917	0.000984	-0.011831	0.007839	0.999899	
3784														-0.287815	0.350281	9.795328	-0.872874	0.487738	-0.014231	-0.487799	-0.872956	0.000961	-0.011954	0.007781	0.999898	
3785														-0.403690	0.012878	9.791675	-0.875384	0.483219	-0.014236	-0.483280	-0.875466	0.000938	-0.012010	0.007701	0.999898	
3786														-0.431568	0.004627	9.761081	-0.878311	0.477879	-0.014225	-0.477939	-0.878393	0.000953	-0.012040	0.007635	0.999898	
3787														-0.094695	-0.242464	9.777755	-0.881017	0.472885	-0.013763	-0.472942	-0.881093	0.001059	-0.011625	0.007442	0.999905	
3788														-0.154686	0.043153	9.803043	-0.883480	0.468266	-0.013807	-0.468323	-0.883556	0.001066	-0.011701	0.007408	0.999904	
3789														-0.274908	0.180636	9.767660	-0.885976	0.463524	-0.013832	-0.463581	-0.886054	0.001015	-0.011786	0.007312	0.999904	
3790														-0.231354	0.235318	9.828190	-0.888576	0.458523	-0.013742	-0.458580	-0.888653	0.001124	-0.011697	0.007301	0.999905	
3791														-0.448021	0.198555	9.788969	-0.891219	0.453368	-0.013683	-0.453424	-0.891294	0.001142	-0.011678	0.007222	0.999906	
3792														-0.240858	0.154440	9.740104	-0.893853	0.448154	-0.013595	-0.448209	-0.893928	0.001143	-0.011641	0.007115	0.999907	
3793														-0.200454	0.103204	9.771475	-0.896620	0.442593	-0.013532	-0.442648	-0.896695	0.001211	-0.011598	0.007076	0.999908	
3794														0.028728	-0.156225	9.826726	-0.899254	0.437220	-0.013437	-0.437275	-0.899327	0.001311	-0.011511	0.007055	0.999909	
3795														-0.068977	-0.046739	9.704616	-0.901947	0.431635	-0.013506	-0.431689	-0.902022	0.001274	-0.011633	0.006979	0.999908	
3796														-0.140072	0.254137	9.832731	-0.904636	0.425975	-0.013418	-0.426028	-0.904709	0.001303	-0.011585	0.006895	0.999909	
3797														-0.159018	0.384164	9.729114	-0.907369	0.420112	-0.013687	-0.420166	-0.907446	0.001182	-0.011924	0.006824	0.999906	
3798														-0.163169	0.095805	9.832094	-0.910044	0.414288	-0.013601	-0.414342	-0.910121	0.001269	-0.011853	0.006790	0.999907	
3799														-0.107852	-0.088304	9.761570	-0.912683	0.408442	-0.013591	-0.408495	-0.912760	0.001218	-0.011908	0.006663	0.999907	
3800														-0.153586	0.065955	9.759321	-0.915283	0.402578	-0.013695	-0.402632	-0.915361	0.001292	-0.012016	0.006697	0.999905	
3801														-0.411303	0.263120	9.673848	-0.917850	0.396679	-0.014036	-0.396733	-0.917933	0.001167	-0.012421	0.006640	0.999901	
3802														-0.185801	0.333655	9.875234	-0.920780	0.389837	-0.013828	-0.389889	-0.920861	0.001178	-0.012274	0.006476	0.999904	
3803														-0.263492	0.091804	9.871592	-0.924188	0.381700	-0.013461	-0.381751	-0.924264	0.001287	-0.011950	0.006328	0.999909	
3804														-0.140734	0.066024	9.701418	-0.927650	0.373196	-0.013788	-0.373247	-0.927731	0.001214	-0.012339	0.006272	0.999904	
3805														-0.031319	0.042831	9.794624	-0.930730	0.365448	-0.013734	-0.365499	-0.930811	0.001331	-0.012297	0.006259	0.999905	
3806														0.156727	0.077862	9.818238	-0.933609	0.358029	-0.013756	-0.358080	-0.933690	0.001304	-0.012377	0.006143	0.999905	
3807														0.053151	0.151341	9.798853	-0.936377	0.350728	-0.013708	-0.350779	-0.936457	0.001367	-0.012358	0.006088	0.999905	
3808														0.102687	-0.064105	9.727508	-0.938832	0.344099	-0.013801	-0.344149	-0.938914	0.001363	-0.012489	0.006029	0.999904	
3809														0.137437	-0.112712	9.714386	-0.940992	0.338150	-0.013742	-0.338200	-0.941073	0.001427	-0.012450	0.005990	0.999905	
3810														0.179820	0.047715	9.863444	-0.942867	0.332885	-0.013783	-0.332935	-0.942949	0.001413	-0.012526	0.005921	0.999904	
3811														0.168391	0.011886	9.730866	-0.944534	0.328122	-0.013813	-0.328173	-0.944617	0.001532	-0.012545	0.005980	0.999903	
3812														-0.001701	0.041643	9.766871	-0.946001	0.323876	-0.013663	-0.323926	-0.946081	0.001579	-0.012415	0.005920	0.999905	
3813														-0.019257	-0.043212	9.853746	-0.947364	0.319871	-0.013582	-0.319920	-0.947443	0.001528	-0.012379	0.005792	0.999907	
3814														-0.249843	0.035317	9.725782	-0.948695	0.315904	-0.013498	-0.315953	-0.948774	0.001564	-0.012313	0.005748	0.999908	
3815														-0.039836	0.089967	9.809258	-0.949973	0.312033	-0.013629	-0.312082	-0.950054	0.001546	-0.012466	0.005722	0.999906	
3816														-0.141450	0.111423	9.731259	-0.951190	0.308304	-0.013676	-0.308354	-0.951270	0.001624	-0.012508	0.005762	0.999905	
3817														-0.148648	0.157521	9.789786	-0.952468	0.304331	-0.013681	-0.304381	-0.952549	0.001662	-0.012526	0.005747	0.999905	
3818														-0.238618	0.071448	9.755869	-0.953783	0.300188	-0.013587	-0.300237	-0.953863	0.001743	-0.012437	0.005741	0.999906	
3819														-0.172894	-0.091699	9.831628	-0.955183	0.295708	-0.013483	-0.295756	-0.955262	0.001680	-0.012383	0.005593	0.999908	
3820														-0.034773	-0.112470	9.794104	-0.956485	0.291460	-0.013685	-0.291510	-0.956566	0.001792	-0.012568	0.005703	0.999905	
3821														0.046058	0.002494	9.725162	-0.957576	0.287859	-0.013602	-0.287908	-0.957656	0.001762	-0.012519	0.005603	0.999906	
3822														0.290508	-0.015902	9.810019	-0.958430	0.285002	-0.013612	-0.285051	-0.958511	0.001800	-0.012534	0.005605	0.999906	
3823														0.167248	-0.133735	9.788985	-0.959090	0.282769	-0.013689	-0.282819	-0.959172	0.001800	-0.012621	0.005598	0.999905	
3824														0.100229	-0.019382	9.800970	-0.959619	0.280984	-0.013367	-0.281032	-0.959697	0.001797	-0.012323	0.005481	0.999909	
3825														-0.091509	0.054154	9.762888	-0.960126	0.279243	-0.013502	-0.279291	-0.960205	0.001805	-0.012460	0.005504	0.999907	
3826														-0.144738	0.096001	9.775288	-0.960746	0.277096	-0.013622	-0.277145	-0.960826	0.001884	-0.012566	0.005585	0.999905	
3827														-0.188605	0.156393	9.758875	-0.961305	0.275155	-0.013530	-0.275203	-0.961384	0.001794	-0.012514	0.005448	0.999907	
3828														-0.129430	0.055331	9.790557	-0.961996	0.272718	-0.013754	-0.272767	-0.962078	0.001809	-0.012739	0.005492	0.999904	
3829														0.086074	-0.167243	9.785048	-0.962470	0.271046	-0.013623	-0.271095	-0.962551	0.001871	-0.012606	0.005494	0.999905	
3830														0.030699	-0.080222	9.768186	-0.962818	0.269808	-0.013636	-0.269856	-0.962899	0.001809	-0.012642	0.005421	0.999905	
3831														-0.005212	0.065048	9.767292	-0.963092	0.268826	-0.013669	-0.268875	-0.963173	0.001850	-0.012669	0.005457	0.999905	
3832														-0.169509	0.167928	9.804015	-0.963213	0.268386	-0.013799	-0.268436	-0.963296	0.001842	-0.012798	0.005478	0.999903	
3833														-0.261455	0.157084	9.770249	-0.963390	0.267749	-0.013812	-0.267798	-0.963474	0.001745	-0.012841	0.005380	0.999903	
3834														-0.246778	0.107191	9.774357	-0.963907	0.265877	-0.013755	-0.265925	-0.963990	0.001782	-0.012786	0.005376	0.999904	
3835														-0.232102	0.057298	9.778464	-0.964424	0.264004	-0.013697	-0.264053	-0.964507	0.001819	-0.012730	0.005371	0.999905	
3836														-0.078500	0.112390	9.749516	-0.964958	0.262052	-0.013573	-0.262099	-0.965039	0.001730	-0.012645	0.005227	0.999906	
3837														-0.067268	0.053245	9.749740	-0.965602	0.259663	-0.013709	-0.259712	-0.965684	0.001843	-0.012760	0.005340	0.999904	
3838														0.013248	-0.052843	9.797014	-0.966082	0.257875	-0.013625	-0.257922	-0.966164	0.001796	-0.012701	0.005249	0.999906	
3839														-0.181871	-0.017794	9.787802	-0.966452	0.256494	-0.013456	-0.256540	-0.966532	0.001782	-0.012549	0.005175	0.999908	
3840														-0.207074	0.034181	9.786907	-0.966806	0.255158	-0.013436	-0.255203	-0.966886	0.001723	-0.012552	0.005095	0.999908	
3841														-0.107467	0.066060	9.747936	-0.967231	0.253534	-0.013551	-0.253581	-0.967313	0.001791	-0.012654	0.005169	0.999907	
3842														-0.234395	0.087217	9.785962	-0.967684	0.251803	-0.013483	-0.251850	-0.967764	0.001872	-0.012577	0.005207	0.999907	
3843														-0.063331	0.138454	9.765235	-0.967905	0.250950	-0.013602	-0.250997	-0.967986	0.001812	-0.012712	0.005168	0.999906	
3844														-0.166865	0.171393	9.833841	-0.968307	0.249383	-0.013749	-0.249431	-0.968391	0.001810	-0.012863	0.005183	0.999904	
3845														-0.071364	0.119396	9.735502	-0.968866	0.247209	-0.013624	-0.247256	-0.968948	0.001882	-0.012735	0.005192	0.999905	
3846														-0.114708	-0.097232	9.805328	-0.969434	0.244971	-0.013647	-0.245018	-0.969517	0.001844	-0.012779	0.005131	0.999905	
3847														-0.184420	-0.018393	9.758465	-0.969908	0.243097	-0.013532	-0.243144	-0.969988	0.001935	-0.012655	0.005167	0.999907	
3848														-0.349221	0.079292	9.780455	-0.970422	0.241039	-0.013473	-0.241086	-0.970502	0.001968	-0.012601	0.005158	0.999907	
3849														-0.243714	0.033309	9.770596	-0.971003	0.238689	-0.013422	-0.238735	-0.971083	0.001953	-0.012568	0.005101	0.999908	
3850														-0.172723	0.151346	9.760205	-0.971552	0.236443	-0.013501	-0.236490	-0.971632	0.001955	-0.012655	0.005092	0.999907	
3851														-0.182744	0.032381	9.817617	-0.972061	0.234332	-0.013611	-0.234378	-0.972144	0.001850	-0.012798	0.004989	0.999906	
3852														-0.263733	0.070877	9.711311	-0.972610	0.232053	-0.013459	-0.232099	-0.972690	0.001937	-0.012642	0.005008	0.999908	
3853														-0.186701	0.129798	9.876785	-0.973091	0.230032	-0.013359	-0.230078	-0.973170	0.001990	-0.012543	0.005010	0.999909	
3854														-0.364606	0.232096	9.692955	-0.973776	0.227104	-0.013552	-0.227150	-0.973858	0.001883	-0.012770	0.004912	0.999906	
3855														0.000522	0.028155	9.797224	-0.974535	0.223838	-0.013375	-0.223883	-0.974614	0.001924	-0.012605	0.004870	0.999909	
3856														-0.169673	0.004539	9.788793	-0.975278	0.220567	-0.013559	-0.220612	-0.975360	0.001902	-0.012806	0.004846	0.999906	
3857														-0.105617	0.157183	9.837142	-0.975991	0.217386	-0.013606	-0.217433	-0.976073	0.002049	-0.012836	0.004958	0.999905	
3858														-0.144254	0.052421	9.731803	-0.976695	0.214200	-0.013626	-0.214247	-0.976777	0.002073	-0.012866	0.004944	0.999905	
3859														-0.108850	0.072897	9.792368	-0.977373	0.211087	-0.013543	-0.211134	-0.977455	0.002129	-0.012788	0.004940	0.999906	
3860														0.066826	0.086317	9.801069	-0.978037	0.207986	-0.013616	-0.208034	-0.978119	0.002158	-0.012869	0.004943	0.999905	
3861														-0.014415	0.025292	9.723375	-0.978637	0.205129	-0.013865	-0.205177	-0.978722	0.002161	-0.013127	0.004960	0.999902	
3862														-0.075585	-0.089226	9.836830	-0.979191	0.202469	-0.013825	-0.202517	-0.979276	0.002166	-0.013100	0.004921	0.999902	
3863														0.146807	-0.032639	9.804211	-0.979716	0.199915	-0.013777	-0.199963	-0.979801	0.002189	-0.013062	0.004899	0.999903	
3864														-0.118369	-0.064626	9.746939	-0.980156	0.197745	-0.013822	-0.197793	-0.980241	0.002189	-0.013116	0.004879	0.999902	
3865														-0.184194	0.017235	9.788418	-0.980663	0.195218	-0.013807	-0.195267	-0.980747	0.002279	-0.013097	0.004931	0.999902	
3866														-0.340783	0.231833	9.797235	-0.981122	0.192906	-0.013709	-0.192955	-0.981205	0.002336	-0.013001	0.004937	0.999903	
3867														-0.029733	0.189817	9.782853	-0.981595	0.190481	-0.013737	-0.190529	-0.981679	0.002233	-0.013060	0.004809	0.999903	
3868														-0.308631	-0.090328	9.796017	-0.982068	0.188056	-0.013353	-0.188102	-0.982147	0.002261	-0.012690	0.004732	0.999908	
3869														-0.100647	-0.005749	9.777551	-0.982560	0.185473	-0.013258	-0.185520	-0.982638	0.002323	-0.012597	0.004742	0.999909	
3870														0.074902	0.012874	9.786286	-0.982997	0.183138	-0.013344	-0.183185	-0.983075	0.002409	-0.012677	0.004813	0.999908	
3871														-0.006473	0.034375	9.797202	-0.983404	0.180940	-0.013279	-0.180987	-0.983482	0.002428	-0.012621	0.004791	0.999909	
3872														-0.128876	0.045980	9.732669	-0.983822	0.178662	-0.013201	-0.178709	-0.983899	0.002456	-0.012550	0.004775	0.999910	
3873														-0.114540	0.158024	9.807755	-0.984214	0.176492	-0.013171	-0.176538	-0.984291	0.002440	-0.012534	0.004727	0.999910	
3874														-0.131983	0.044697	9.791190	-0.984652	0.174039	-0.013103	-0.174084	-0.984728	0.002417	-0.012482	0.004661	0.999911	
3875														-0.179943	0.014985	9.744570	-0.985132	0.171304	-0.013049	-0.171351	-0.985207	0.002530	-0.012422	0.004728	0.999912	
3876														-0.246888	0.009893	9.741304	-0.985570	0.168737	-0.013364	-0.168785	-0.985650	0.002496	-0.012751	0.004716	0.999908	
3877														-0.011302	0.068142	9.782752	-0.986034	0.166027	-0.013121	-0.166073	-0.986110	0.002461	-0.012530	0.004606	0.999911	
3878														-0.171634	0.159120	9.805165	-0.986499	0.163237	-0.013192	-0.163283	-0.986576	0.002482	-0.012610	0.004603	0.999910	
3879														-0.386113	0.146408	9.735948	-0.987007	0.160131	-0.013261	-0.160176	-0.987085	0.002429	-0.012701	0.004522	0.999909	
3880														-0.173644	0.158529	9.790498	-0.987514	0.156976	-0.013197	-0.157022	-0.987592	0.002524	-0.012637	0.004565	0.999910	
3881														-0.271486	0.096511	9.755751	-0.988130	0.153064	-0.013088	-0.153109	-0.988206	0.002560	-0.012542	0.004533	0.999911	
3882														-0.125806	-0.035329	9.878809	-0.988602	0.149994	-0.012985	-0.150039	-0.988677	0.002535	-0.012458	0.004454	0.999912	
3883														-0.306166	0.158193	9.637431	-0.989107	0.146609	-0.013183	-0.146656	-0.989184	0.002649	-0.012652	0.004553	0.999910	
3884														-0.137270	0.149826	9.777671	-0.989627	0.143031	-0.013438	-0.143079	-0.989707	0.002709	-0.012912	0.004603	0.999906	
3885														-0.168847	0.199301	9.747366	-0.990203	0.139007	-0.013207	-0.139054	-0.990281	0.002735	-0.012698	0.004545	0.999909	
3886														-0.203061	0.458054	9.821917	-0.990881	0.134094	-0.013183	-0.134141	-0.990959	0.002742	-0.012696	0.004485	0.999909	
3887														-0.338264	-0.086727	9.823956	-0.991590	0.128731	-0.013299	-0.128779	-0.991669	0.002798	-0.012828	0.004487	0.999908	
3888														-0.451653	0.063622	9.702801	-0.992299	0.123138	-0.013396	-0.123187	-0.992379	0.002886	-0.012938	0.004514	0.999906	
3889														-0.322949	0.044906	9.826247	-0.993026	0.117171	-0.013055	-0.117218	-0.993102	0.002895	-0.012626	0.004406	0.999911	
3890														-0.332124	0.034800	9.825666	-0.993785	0.110591	-0.012661	-0.110637	-0.993856	0.003009	-0.012251	0.004391	0.999915	
3891														-0.194435	0.020436	9.788137	-0.994475	0.104205	-0.012652	-0.104251	-0.994546	0.003047	-0.012265	0.004349	0.999915	
3892														-0.073216	0.051024	9.794361	-0.995153	0.097551	-0.012458	-0.097596	-0.995222	0.003005	-0.012106	0.004207	0.999918	
3893														0.042808	-0.029588	9.725563	-0.995765	0.091080	-0.012495	-0.091125	-0.995835	0.003108	-0.012159	0.004233	0.999917	
3894														-0.123875	0.122055	9.763555	-0.996316	0.084867	-0.012346	-0.084911	-0.996384	0.003050	-0.012043	0.004087	0.999919	
3895														-0.388818	0.254653	9.782055	-0.996834	0.078534	-0.012446	-0.078578	-0.996903	0.003105	-0.012164	0.004073	0.999918	
3896														-0.388752	0.199245	9.796078	-0.997353	0.071659	-0.012339	-0.071702	-0.997421	0.003063	-0.012088	0.003939	0.999919	
3897														-0.233484	0.059104	9.860266	-0.997837	0.064581	-0.012256	-0.064623	-0.997905	0.003115	-0.012029	0.003900	0.999920	
3898														-0.107409	0.116620	9.764476	-0.998271	0.057474	-0.012334	-0.057516	-0.998340	0.003117	-0.012134	0.003821	0.999919	
3899														-0.113662	0.188917	9.809341	-0.998664	0.050146	-0.012506	-0.050189	-0.998735	0.003187	-0.012330	0.003811	0.999917	
3900														-0.232442	0.150728	9.744551	-0.999005	0.042804	-0.012493	-0.042847	-0.999077	0.003168	-0.012346	0.003700	0.999917	
3901														-0.368939	0.058557	9.766056	-0.999295	0.035467	-0.012337	-0.035508	-0.999364	0.003156	-0.012217	0.003592	0.999919	
3902														-0.136869	0.096118	9.777694	-0.999527	0.028136	-0.012413	-0.028179	-0.999597	0.003314	-0.012315	0.003662	0.999917	
3903														-0.270015	0.004101	9.740651	-0.999692	0.021504	-0.012417	-0.021545	-0.999763	0.003203	-0.012345	0.003470	0.999918	
3904														0.111106	0.114884	9.804500	-0.999811	0.015061	-0.012321	-0.015104	-0.999880	0.003339	-0.012269	0.003524	0.999919	
3905														-0.156894	0.002208	9.760689	-0.999889	0.008265	-0.012396	-0.008306	-0.999960	0.003238	-0.012369	0.003341	0.999918	
3906														-0.192456	0.085950	9.760466	-0.999925	0.001199	-0.012224	-0.001238	-0.999994	0.003173	-0.012221	0.003188	0.999920	
3907														0.036109	0.130668	9.830666	-0.999904	-0.006808	-0.012105	0.006771	-0.999972	0.003112	-0.012126	0.003030	0.999922	
3908														-0.270702	0.169532	9.758394	-0.999808	-0.015447	-0.012038	0.015410	-0.999876	0.003146	-0.012085	0.002960	0.999923	
3909														-0.422251	0.091295	9.764689	-0.999614	-0.024983	-0.012194	0.024945	-0.999684	0.003252	-0.012271	0.002947	0.999920	
3910														-0.148641	-0.096907	9.715385	-0.999318	-0.034849	-0.012220	0.034811	-0.999389	0.003268	-0.012326	0.002841	0.999920	
3911														-0.183042	-0.129012	9.771851	-0.998919	-0.044828	-0.012269	0.044789	-0.998991	0.003393	-0.012409	0.002840	0.999919	
3912														-0.307905	-0.004585	9.812464	-0.998395	-0.055252	-0.012466	0.055213	-0.998469	0.003479	-0.012639	0.002785	0.999916	
3913														-0.255347	0.025591	9.771553	-0.997680	-0.066039	-0.012526	0.066000	-0.997755	0.003566	-0.012734	0.002730	0.999915	
3914														-0.202789	0.055767	9.730641	-0.996965	-0.076827	-0.012586	0.076787	-0.997041	0.003653	-0.012830	0.002675	0.999914	
3915														-0.301618	0.401313	9.879950	-0.996120	-0.087086	-0.012684	0.087045	-0.996197	0.003724	-0.012960	0.002606	0.999913	
3916														-0.347932	0.160801	9.770380	-0.995101	-0.098023	-0.012894	0.097983	-0.995181	0.003697	-0.013194	0.002416	0.999910	
3917														-0.020210	0.042779	9.915105	-0.993849	-0.110019	-0.012652	0.109982	-0.993927	0.003652	-0.012977	0.002238	0.999913	
3918														-0.334606	0.189038	9.551969	-0.992357	-0.122711	-0.013051	0.122671	-0.992440	0.003808	-0.013420	0.002178	0.999908	
3919														0.004220	-0.172124	9.852812	-0.990901	-0.133994	-0.012650	0.133958	-0.990980	0.003647	-0.013025	0.001919	0.999913	
3920														0.047457	0.027918	9.815195	-0.989365	-0.144925	-0.012405	0.144892	-0.989441	0.003459	-0.012775	0.001625	0.999917	
3921														-0.073261	0.110323	9.826364	-0.987784	-0.155347	-0.012206	0.155317	-0.987859	0.003417	-0.012589	0.001479	0.999920	
3922														-0.091571	0.131258	9.708772	-0.986157	-0.165361	-0.012243	0.165331	-0.986232	0.003469	-0.012648	0.001397	0.999919	
3923														0.006492	0.348758	9.777138	-0.984485	-0.175067	-0.011883	0.175038	-0.984556	0.003467	-0.012307	0.001333	0.999923	
3924														-0.266919	0.381036	9.692754	-0.982721	-0.184713	-0.011854	0.184685	-0.982792	0.003448	-0.012287	0.001199	0.999924	
3925														-0.038834	0.299014	9.906084	-0.980931	-0.194016	-0.011484	0.193991	-0.980998	0.003276	-0.011901	0.000985	0.999929	
3926														-0.165317	0.273751	9.738781	-0.979037	-0.203356	-0.011512	0.203331	-0.979105	0.003280	-0.011938	0.000871	0.999928	
3927														-0.175051	0.165888	9.765026	-0.977053	-0.212683	-0.011518	0.212660	-0.977121	0.003259	-0.011948	0.000735	0.999928	
3928														-0.021492	-0.020976	9.766640	-0.975060	-0.221647	-0.011416	0.221624	-0.975127	0.003241	-0.011850	0.000630	0.999930	
3929														-0.076151	-0.146713	9.804934	-0.973041	-0.230346	-0.011520	0.230324	-0.973109	0.003226	-0.011953	0.000486	0.999928	
3930														-0.073079	0.011140	9.824063	-0.970965	-0.238945	-0.011505	0.238921	-0.971033	0.003365	-0.011976	0.000519	0.999928	
3931														-0.037255	0.165814	9.785895	-0.968752	-0.247767	-0.011476	0.247746	-0.968820	0.003247	-0.011923	0.000302	0.999929	
3932														-0.082244	0.284169	9.772749	-0.966424	-0.256703	-0.011351	0.256681	-0.966490	0.003374	-0.011836	0.000347	0.999930	
3933														-0.192474	0.199355	9.736519	-0.964019	-0.265593	-0.011275	0.265571	-0.964085	0.003378	-0.011767	0.000262	0.999931	
3934														-0.138952	-0.066001	9.760507	-0.961493	-0.274599	-0.011293	0.274577	-0.961559	0.003442	-0.011804	0.000208	0.999930	
3935														-0.247505	0.059137	9.671732	-0.958822	-0.283789	-0.011148	0.283768	-0.958887	0.003469	-0.011674	0.000163	0.999932	
3936														-0.121296	0.104331	9.898255	-0.955976	-0.293229	-0.011271	0.293207	-0.956042	0.003569	-0.011822	0.000107	0.999930	
3937														-0.284997	0.002775	9.771369	-0.953035	-0.302649	-0.011277	0.302626	-0.953102	0.003710	-0.011871	0.000123	0.999930	
3938														-0.161202	-0.019632	9.746376	-0.950032	-0.311950	-0.011199	0.311927	-0.950098	0.003819	-0.011832	0.000135	0.999930	
3939														-0.284064	0.064772	9.788066	-0.947005	-0.321013	-0.011455	0.320988	-0.947075	0.004041	-0.012146	0.000150	0.999926	
3940														-0.151139	0.122648	9.765889	-0.943898	-0.330042	-0.011360	0.330017	-0.943966	0.004070	-0.012066	0.000093	0.999927	
3941														-0.333548	0.251097	9.836060	-0.940525	-0.339535	-0.011357	0.339511	-0.940593	0.004077	-0.012066	-0.000021	0.999927	
3942														-0.157316	0.173887	9.723438	-0.936877	-0.349474	-0.011333	0.349451	-0.936946	0.004039	-0.012030	-0.000176	0.999928	
3943														-0.087015	0.018234	9.735969	-0.933053	-0.359580	-0.010705	0.359564	-0.933114	0.003480	-0.011241	-0.000603	0.999937	
3944														-0.152879	-0.020125	9.834887	-0.929015	-0.369890	-0.010641	0.369876	-0.929075	0.003333	-0.011119	-0.000839	0.999938	
3945														-0.273440	0.026597	9.743956	-0.924816	-0.380269	-0.010523	0.380255	-0.924876	0.003400	-0.011026	-0.000857	0.999939	
3946														-0.190507	0.095719	9.793411	-0.920591	-0.390391	-0.010363	0.390379	-0.920648	0.003296	-0.010827	-0.001011	0.999941	
3947														-0.036331	-0.026125	9.780338	-0.916261	-0.400451	-0.010243	0.400438	-0.916318	0.003338	-0.010723	-0.001044	0.999942	
3948														-0.449321	-0.190133	9.745149	-0.912497	-0.408954	-0.010292	0.408940	-0.912555	0.003512	-0.010828	-0.001004	0.999941	
3949														-0.059390	-0.000606	9.809714	-0.908558	-0.417633	-0.010301	0.417619	-0.908615	0.003513	-0.010826	-0.001110	0.999941	
3950														-0.115338	-0.021147	9.733707	-0.904530	-0.426284	-0.010336	0.426271	-0.904589	0.003587	-0.010879	-0.001162	0.999940	
3951														-0.147115	-0.082470	9.950467	-0.900839	-0.434029	-0.010375	0.434014	-0.900898	0.003822	-0.011005	-0.001060	0.999939	
3952														-0.100214	0.020821	9.706424	-0.897433	-0.441026	-0.010444	0.441011	-0.897493	0.003863	-0.011077	-0.001139	0.999938	
3953														-0.202721	0.481727	9.821753	-0.893782	-0.448378	-0.010566	0.448362	-0.893843	0.003940	-0.011211	-0.001216	0.999936	
3954														0.163310	0.258169	9.782822	-0.889783	-0.456266	-0.010343	0.456252	-0.889842	0.003815	-0.010944	-0.001324	0.999939	
3955														0.170529	0.038988	9.731287	-0.885622	-0.464286	-0.010616	0.464270	-0.885684	0.004078	-0.011296	-0.001317	0.999935	
3956														0.169404	0.131757	9.778656	-0.881655	-0.471773	-0.010664	0.471758	-0.881719	0.004033	-0.011305	-0.001475	0.999935	
3957														0.179185	0.251730	9.812715	-0.877704	-0.479086	-0.010648	0.479072	-0.877767	0.003961	-0.011244	-0.001625	0.999935	
3958														0.265799	-0.026383	9.790840	-0.874033	-0.485750	-0.010605	0.485739	-0.874096	0.003812	-0.011122	-0.001819	0.999936	
3959														0.173164	-0.160357	9.724063	-0.870505	-0.492042	-0.010761	0.492030	-0.870569	0.003940	-0.011307	-0.001865	0.999934	
3960														0.037460	0.178390	9.776053	-0.866989	-0.498210	-0.010777	0.498197	-0.867054	0.004064	-0.011369	-0.001846	0.999934	
3961														0.000022	0.450546	9.828992	-0.863105	-0.504910	-0.010751	0.504897	-0.863170	0.004040	-0.011320	-0.001942	0.999934	
3962														0.133267	-0.038727	9.815123	-0.858751	-0.512283	-0.010627	0.512273	-0.858814	0.003891	-0.011120	-0.002102	0.999936	
3963														0.046867	-0.271403	9.818022	-0.854873	-0.518732	-0.010448	0.518722	-0.854934	0.003859	-0.010934	-0.002120	0.999938	
3964														0.105094	-0.039876	9.769949	-0.852221	-0.523080	-0.010334	0.523070	-0.852281	0.003837	-0.010814	-0.002135	0.999939	
3965														0.033781	0.135014	9.774304	-0.849179	-0.528003	-0.010437	0.527992	-0.849240	0.003981	-0.010966	-0.002130	0.999938	
3966														0.162309	-0.051701	9.712630	-0.845704	-0.533553	-0.010327	0.533543	-0.845764	0.003902	-0.010816	-0.002211	0.999939	
3967														0.084002	-0.000554	9.770718	-0.841821	-0.539658	-0.010371	0.539648	-0.841882	0.003963	-0.010870	-0.002261	0.999938	
3968														0.184433	-0.239799	9.764626	-0.837336	-0.546590	-0.010388	0.546580	-0.837397	0.003991	-0.010880	-0.002337	0.999938	
3969														0.020884	0.239141	9.910038	-0.833763	-0.552026	-0.010360	0.552015	-0.833824	0.004162	-0.010936	-0.002249	0.999938	
3970														-0.063677	0.617020	9.746186	-0.829558	-0.558320	-0.010550	0.558308	-0.829622	0.004313	-0.011161	-0.002312	0.999935	
3971														0.062951	0.540792	9.688694	-0.824856	-0.565244	-0.010565	0.565233	-0.824920	0.004298	-0.011145	-0.002426	0.999935	
3972														0.009577	-0.267257	9.816603	-0.821092	-0.570695	-0.010724	0.570682	-0.821158	0.004538	-0.011396	-0.002394	0.999932	
3973														0.084592	-0.842879	9.869458	-0.817565	-0.575740	-0.010498	0.575727	-0.817629	0.004544	-0.011200	-0.002329	0.999935	
3974														-0.277990	-0.236402	9.647544	-0.814381	-0.580236	-0.010513	0.580223	-0.814445	0.004535	-0.011194	-0.002407	0.999934	
3975														0.063644	-0.306611	9.831208	-0.810408	-0.585771	-0.010526	0.585758	-0.810473	0.004619	-0.011236	-0.002423	0.999934	
3976														0.095358	-0.298276	9.847150	-0.806512	-0.591122	-0.010675	0.591108	-0.806578	0.004706	-0.011392	-0.002515	0.999932	
3977														-0.166542	-0.060977	9.775398	-0.802745	-0.596228	-0.010625	0.596218	-0.802810	0.004476	-0.011199	-0.002742	0.999934	
3978														-0.032639	-0.073918	9.764253	-0.798913	-0.601354	-0.010552	0.601345	-0.798978	0.004370	-0.011059	-0.002855	0.999935	
3979														-0.126890	0.287079	9.790789	-0.795281	-0.606150	-0.010472	0.606140	-0.795345	0.004498	-0.011055	-0.002770	0.999935	
3980														-0.250087	0.189761	9.797929	-0.791596	-0.610959	-0.010253	0.610952	-0.791656	0.004174	-0.010667	-0.002960	0.999939	
3981														-0.262780	0.355235	9.760522	-0.788029	-0.615553	-0.010239	0.615548	-0.788089	0.004019	-0.010543	-0.003135	0.999940	
3982														-0.051735	0.034410	9.738755	-0.784268	-0.620340	-0.010108	0.620336	-0.784327	0.003921	-0.010360	-0.003195	0.999941	
3983														-0.127249	-0.313714	9.824853	-0.780568	-0.624989	-0.010103	0.624985	-0.780627	0.003982	-0.010375	-0.003206	0.999941	
3984														0.005419	-0.141185	9.791776	-0.776701	-0.629785	-0.010346	0.629780	-0.776763	0.004118	-0.010630	-0.003317	0.999938	
3985														0.168823	-0.137095	9.811158	-0.772774	-0.634601	-0.010082	0.634597	-0.772833	0.004085	-0.010384	-0.003241	0.999941	
3986														0.012953	-0.302156	9.770483	-0.768920	-0.639266	-0.009987	0.639261	-0.768979	0.004150	-0.010333	-0.003194	0.999942	
3987														0.194120	-0.089148	9.754939	-0.765066	-0.643877	-0.009843	0.643873	-0.765122	0.004030	-0.010126	-0.003254	0.999943	
3988														-0.361134	0.398899	9.819083	-0.761026	-0.648645	-0.009918	0.648641	-0.761083	0.004050	-0.010175	-0.003351	0.999943	
3989														-0.237070	0.559199	9.770747	-0.757104	-0.653222	-0.009758	0.653221	-0.757158	0.003716	-0.009816	-0.003561	0.999945	
3990														0.050948	0.048577	9.771484	-0.753010	-0.657935	-0.009881	0.657933	-0.753066	0.003858	-0.009979	-0.003596	0.999944	
3991														-0.038219	-0.338466	9.752607	-0.749106	-0.662380	-0.009617	0.662381	-0.749158	0.003551	-0.009557	-0.003710	0.999947	
3992														0.029535	-0.406629	9.795374	-0.745275	-0.666687	-0.009707	0.666686	-0.745329	0.003742	-0.009730	-0.003682	0.999946	
3993														-0.018047	-0.057425	9.691789	-0.741337	-0.671064	-0.009644	0.671065	-0.741390	0.003555	-0.009536	-0.003837	0.999947	
3994														0.007897	-0.081665	9.823398	-0.737654	-0.675111	-0.009596	0.675115	-0.737705	0.003342	-0.009335	-0.004013	0.999948	
3995														0.262654	-0.207986	9.794909	-0.734543	-0.678494	-0.009602	0.678499	-0.734594	0.003245	-0.009256	-0.004131	0.999949	
3996														0.230654	-0.085552	9.770079	-0.731833	-0.681416	-0.009650	0.681421	-0.731884	0.003211	-0.009250	-0.004226	0.999948	
3997														0.203783	-0.040134	9.815382	-0.729251	-0.684179	-0.009618	0.684184	-0.729302	0.003277	-0.009257	-0.004191	0.999948	
3998														0.130017	-0.058287	9.724758	-0.727636	-0.685896	-0.009622	0.685901	-0.727688	0.003295	-0.009262	-0.004203	0.999948	
3999														0.169198	-0.094584	9.812123	-0.726357	-0.687250	-0.009608	0.687256	-0.726408	0.003224	-0.009195	-0.004262	0.999949	
4000														0.236127	-0.188155	9.794988	-0.725228	-0.688441	-0.009716	0.688449	-0.725279	0.002997	-0.009110	-0.004516	0.999948	
4001														0.175712	0.169466	9.779983	-0.723540	-0.690214	-0.009737	0.690222	-0.723591	0.003016	-0.009127	-0.004538	0.999948	
4002														0.244799	-0.301171	9.687525	-0.722164	-0.691654	-0.009692	0.691662	-0.722215	0.003024	-0.009092	-0.004520	0.999948	
4003														0.114029	-0.031724	9.813586	-0.721537	-0.692308	-0.009697	0.692314	-0.721589	0.003220	-0.009227	-0.004390	0.999948	
4004														0.228740	-0.274390	9.805663	-0.720122	-0.693780	-0.009717	0.693788	-0.720173	0.003016	-0.009091	-0.004570	0.999948	
4005														0.097591	-0.487541	9.793024	-0.719886	-0.694021	-0.009955	0.694033	-0.719938	0.002714	-0.009051	-0.004955	0.999947	
4006														-0.127982	-0.014435	10.264189	-0.719880	-0.693987	-0.012409	0.694040	-0.719937	0.000103	-0.009005	-0.008538	0.999923	
4007														-0.180057	-0.336335	8.986864	-0.719439	-0.694389	-0.015195	0.694497	-0.719490	-0.002746	-0.009026	-0.012528	0.999881	
4008														0.030406	-0.134569	10.057664	-0.716600	-0.697420	-0.009425	0.697427	-0.716649	0.003128	-0.008936	-0.004332	0.999951	
4009														-0.142566	0.092503	9.768799	-0.716240	-0.697790	-0.009446	0.697797	-0.716289	0.003116	-0.008940	-0.004360	0.999951	
4010														-0.108219	-0.056311	9.763067	-0.716216	-0.697815	-0.009417	0.697822	-0.716264	0.003107	-0.008913	-0.004346	0.999951	
4011														-0.107104	-0.027417	9.779026	-0.716178	-0.697855	-0.009387	0.697861	-0.716226	0.003129	-0.008907	-0.004310	0.999951	
4012														-0.092891	-0.028054	9.779334	-0.716110	-0.697925	-0.009374	0.697931	-0.716158	0.003122	-0.008892	-0.004307	0.999951	
4013														-0.093794	-0.041894	9.764036	-0.716041	-0.697995	-0.009361	0.698001	-0.716090	0.003114	-0.008877	-0.004304	0.999951	
4014														-0.064969	-0.043532	9.764659	-0.715959	-0.698080	-0.009348	0.698086	-0.716007	0.003123	-0.008873	-0.004290	0.999951	
4015														-0.109270	-0.027315	9.793638	-0.715818	-0.698225	-0.009365	0.698231	-0.715866	0.003149	-0.008903	-0.004285	0.999951	
4016														-0.111391	-0.055967	9.777671	-0.715602	-0.698445	-0.009400	0.698451	-0.715651	0.003133	-0.008915	-0.004323	0.999951	
4017														-0.050149	-0.014551	9.751661	-0.715314	-0.698740	-0.009404	0.698746	-0.715363	0.003133	-0.008917	-0.004330	0.999951	
4018														-0.095250	-0.013148	9.779968	-0.715025	-0.699035	-0.009408	0.699042	-0.715074	0.003134	-0.008918	-0.004336	0.999951	
4019														-0.092359	-0.017463	9.790851	-0.715016	-0.699045	-0.009395	0.699052	-0.715064	0.003117	-0.008897	-0.004339	0.999951	
4020														-0.089468	-0.021778	9.801734	-0.715006	-0.699056	-0.009382	0.699062	-0.715054	0.003100	-0.008876	-0.004342	0.999951	
4021														-0.082570	-0.028477	9.779612	-0.715025	-0.699036	-0.009382	0.699043	-0.715073	0.003091	-0.008869	-0.004349	0.999951	
4022														-0.097635	-0.027486	9.779289	-0.715015	-0.699046	-0.009368	0.699053	-0.715064	0.003097	-0.008863	-0.004335	0.999951	
4023														-0.098655	-0.027896	9.793913	-0.714976	-0.699086	-0.009384	0.699092	-0.715025	0.003135	-0.008901	-0.004319	0.999951	
4024														-0.098911	-0.027178	9.779277	-0.714966	-0.699096	-0.009386	0.699103	-0.715014	0.003111	-0.008885	-0.004338	0.999951	
4025														-0.099311	-0.027217	9.779273	-0.714971	-0.699092	-0.009387	0.699098	-0.715019	0.003101	-0.008880	-0.004345	0.999951	
4026														-0.086081	-0.042455	9.778927	-0.714991	-0.699071	-0.009372	0.699077	-0.715039	0.003137	-0.008894	-0.004309	0.999951	
4027														-0.085411	-0.013646	9.794878	-0.714995	-0.699066	-0.009388	0.699073	-0.715044	0.003143	-0.008910	-0.004316	0.999951	
4028														-0.072555	-0.043059	9.779243	-0.715029	-0.699032	-0.009374	0.699038	-0.715078	0.003117	-0.008882	-0.004324	0.999951	
4029														-0.086622	-0.027531	9.779579	-0.715034	-0.699027	-0.009360	0.699034	-0.715082	0.003107	-0.008865	-0.004321	0.999951	
4030														-0.086654	-0.026819	9.764946	-0.715038	-0.699022	-0.009361	0.699029	-0.715087	0.003098	-0.008860	-0.004329	0.999951	
4031														-0.088769	-0.042589	9.793538	-0.715014	-0.699047	-0.009362	0.699054	-0.715062	0.003120	-0.008876	-0.004314	0.999951	
4032														-0.087706	-0.026517	9.764938	-0.715048	-0.699013	-0.009348	0.699019	-0.715096	0.003110	-0.008858	-0.004311	0.999951	
4033														-0.088940	-0.027942	9.794192	-0.715037	-0.699024	-0.009395	0.699030	-0.715085	0.003086	-0.008876	-0.004361	0.999951	
4034														-0.103753	-0.026543	9.779229	-0.715057	-0.699004	-0.009381	0.699010	-0.715105	0.003091	-0.008869	-0.004347	0.999951	
4035														-0.089743	-0.027098	9.779552	-0.714974	-0.699088	-0.009382	0.699095	-0.715022	0.003131	-0.008897	-0.004321	0.999951	
4036														-0.090257	-0.027025	9.779548	-0.714963	-0.699099	-0.009384	0.699106	-0.715011	0.003092	-0.008871	-0.004350	0.999951	
4037														-0.076803	-0.042560	9.779212	-0.714968	-0.699095	-0.009385	0.699101	-0.715016	0.003082	-0.008865	-0.004358	0.999951	
4038														-0.090739	-0.026403	9.764910	-0.714972	-0.699090	-0.009386	0.699097	-0.715021	0.003088	-0.008870	-0.004354	0.999951	
4039														-0.076935	-0.027858	9.779868	-0.714976	-0.699086	-0.009388	0.699093	-0.715025	0.003064	-0.008854	-0.004373	0.999951	
4040														-0.107000	-0.026934	9.793828	-0.714981	-0.699081	-0.009404	0.699088	-0.715029	0.003054	-0.008860	-0.004391	0.999951	
4041														-0.107236	-0.026114	9.779192	-0.714971	-0.699091	-0.009390	0.699097	-0.715020	0.003091	-0.008875	-0.004354	0.999951	
4042														-0.093864	-0.041217	9.778861	-0.714976	-0.699086	-0.009360	0.699093	-0.715024	0.003081	-0.008847	-0.004341	0.999951	
4043														-0.078882	-0.027304	9.779854	-0.714981	-0.699081	-0.009376	0.699088	-0.715029	0.003088	-0.008863	-0.004347	0.999951	
4044														-0.080238	-0.041788	9.779188	-0.714971	-0.699092	-0.009362	0.699098	-0.715019	0.003094	-0.008857	-0.004333	0.999951	
4045														-0.080311	-0.027746	9.794475	-0.714975	-0.699087	-0.009379	0.699094	-0.715023	0.003085	-0.008863	-0.004351	0.999951	
4046														-0.096341	-0.041574	9.793471	-0.714979	-0.699083	-0.009395	0.699089	-0.715028	0.003091	-0.008878	-0.004358	0.999951	
4047														-0.096247	-0.040058	9.764207	-0.714970	-0.699092	-0.009380	0.699099	-0.715018	0.003128	-0.008894	-0.004321	0.999951	
4048														-0.096595	-0.026450	9.794124	-0.714960	-0.699103	-0.009351	0.699109	-0.715008	0.003103	-0.008856	-0.004319	0.999951	
4049														-0.111134	-0.024938	9.779152	-0.714964	-0.699098	-0.009352	0.699105	-0.715012	0.003094	-0.008850	-0.004326	0.999951	
4050														-0.082066	-0.025784	9.765197	-0.714969	-0.699094	-0.009353	0.699100	-0.715017	0.003115	-0.008865	-0.004312	0.999951	
4051														-0.083779	-0.040805	9.779163	-0.714959	-0.699104	-0.009339	0.699110	-0.715007	0.003121	-0.008860	-0.004297	0.999952	
4052														-0.098873	-0.026602	9.808736	-0.714963	-0.699099	-0.009355	0.699106	-0.715011	0.003112	-0.008865	-0.004315	0.999951	
4053														-0.098243	-0.024610	9.764842	-0.714953	-0.699110	-0.009341	0.699116	-0.715001	0.003119	-0.008859	-0.004301	0.999952	
4054														-0.099416	-0.039051	9.764179	-0.714958	-0.699105	-0.009327	0.699112	-0.715006	0.003109	-0.008843	-0.004298	0.999952	
4055														-0.099755	-0.038933	9.764176	-0.714963	-0.699101	-0.009313	0.699107	-0.715010	0.003100	-0.008826	-0.004295	0.999952	
4056														-0.085553	-0.026059	9.794436	-0.714983	-0.699080	-0.009283	0.699086	-0.715030	0.003135	-0.008829	-0.004248	0.999952	
4057														-0.086443	-0.039750	9.779144	-0.714958	-0.699106	-0.009284	0.699112	-0.715005	0.003127	-0.008824	-0.004255	0.999952	
4058														-0.101620	-0.038837	9.778793	-0.714962	-0.699101	-0.009285	0.699107	-0.715010	0.003148	-0.008840	-0.004240	0.999952	
4059														-0.087927	-0.040031	9.793765	-0.714952	-0.699112	-0.009271	0.699117	-0.715000	0.003155	-0.008834	-0.004226	0.999952	
4060														-0.101845	-0.023769	9.779442	-0.714972	-0.699092	-0.009256	0.699097	-0.715019	0.003160	-0.008827	-0.004212	0.999952	
4061														-0.088101	-0.038349	9.764499	-0.714962	-0.699102	-0.009257	0.699108	-0.715009	0.003167	-0.008833	-0.004208	0.999952	
4062														-0.088172	-0.024357	9.779782	-0.714966	-0.699098	-0.009259	0.699104	-0.715013	0.003142	-0.008817	-0.004226	0.999952	
4063														-0.102862	-0.022926	9.764799	-0.714970	-0.699094	-0.009259	0.699099	-0.715018	0.003148	-0.008822	-0.004222	0.999952	
4064														-0.103788	-0.036884	9.749506	-0.714974	-0.699089	-0.009276	0.699095	-0.715022	0.003139	-0.008827	-0.004240	0.999952	
4065														-0.104304	-0.023478	9.779417	-0.714964	-0.699100	-0.009262	0.699105	-0.715012	0.003146	-0.008821	-0.004226	0.999952	
4066														-0.090516	-0.024870	9.794394	-0.714983	-0.699081	-0.009278	0.699087	-0.715030	0.003121	-0.008816	-0.004255	0.999952	
4067														-0.075898	-0.024932	9.780114	-0.715002	-0.699061	-0.009248	0.699067	-0.715050	0.003126	-0.008798	-0.004230	0.999952	
4068														-0.091766	-0.038498	9.779100	-0.714992	-0.699071	-0.009249	0.699077	-0.715040	0.003148	-0.008814	-0.004215	0.999952	
4069														-0.091235	-0.023066	9.765123	-0.714997	-0.699067	-0.009250	0.699072	-0.715044	0.003154	-0.008819	-0.004211	0.999952	
4070														-0.093254	-0.038780	9.793721	-0.715001	-0.699062	-0.009236	0.699068	-0.715049	0.003160	-0.008813	-0.004197	0.999952	
4071														-0.093475	-0.038175	9.779085	-0.714990	-0.699073	-0.009283	0.699079	-0.715038	0.003152	-0.008841	-0.004236	0.999952	
4072														-0.077996	-0.023229	9.750834	-0.714994	-0.699069	-0.009299	0.699075	-0.715042	0.003143	-0.008847	-0.004254	0.999952	
4073														-0.093510	-0.023041	9.765101	-0.715013	-0.699049	-0.009285	0.699055	-0.715061	0.003149	-0.008840	-0.004239	0.999952	
4074														-0.079721	-0.024203	9.780086	-0.715003	-0.699060	-0.009271	0.699065	-0.715051	0.003155	-0.008834	-0.004225	0.999952	
4075														-0.095583	-0.037996	9.779066	-0.714992	-0.699071	-0.009287	0.699076	-0.715040	0.003147	-0.008840	-0.004243	0.999952	
4076														-0.081462	-0.038778	9.779421	-0.714996	-0.699066	-0.009288	0.699072	-0.715044	0.003138	-0.008835	-0.004250	0.999952	
4077														-0.081183	-0.024144	9.780074	-0.714986	-0.699077	-0.009289	0.699083	-0.715033	0.003129	-0.008830	-0.004257	0.999952	
4078														-0.111608	-0.037152	9.778691	-0.714990	-0.699073	-0.009275	0.699079	-0.715038	0.003135	-0.008823	-0.004243	0.999952	
4079														-0.083303	-0.039147	9.794039	-0.714994	-0.699068	-0.009291	0.699074	-0.715042	0.003141	-0.008839	-0.004249	0.999952	
4080														-0.096195	-0.007831	9.765725	-0.714999	-0.699064	-0.009277	0.699070	-0.715046	0.003132	-0.008823	-0.004246	0.999952	
4081														-0.098753	-0.051612	9.763754	-0.714973	-0.699090	-0.009278	0.699096	-0.715021	0.003124	-0.008818	-0.004253	0.999952	
4082														-0.083531	-0.023523	9.780055	-0.715008	-0.699055	-0.009248	0.699061	-0.715055	0.003144	-0.008811	-0.004217	0.999952	
4083														-0.098545	-0.022513	9.779688	-0.714998	-0.699066	-0.009234	0.699072	-0.715045	0.003135	-0.008795	-0.004214	0.999952	
4084														-0.084371	-0.023226	9.780049	-0.715001	-0.699062	-0.009250	0.699068	-0.715049	0.003126	-0.008800	-0.004231	0.999952	
4085														-0.099555	-0.022584	9.779677	-0.715005	-0.699058	-0.009267	0.699064	-0.715053	0.003118	-0.008806	-0.004249	0.999952	
4086														-0.086501	-0.051888	9.764099	-0.715009	-0.699053	-0.009268	0.699059	-0.715057	0.003124	-0.008811	-0.004245	0.999952	
4087														-0.101263	-0.036957	9.779013	-0.715000	-0.699064	-0.009238	0.699070	-0.715047	0.003130	-0.008794	-0.004220	0.999952	
4088														-0.086889	-0.023572	9.794660	-0.714988	-0.699075	-0.009270	0.699081	-0.715036	0.003137	-0.008821	-0.004237	0.999952	
4089														-0.087203	-0.022965	9.780025	-0.715007	-0.699055	-0.009286	0.699061	-0.715055	0.003143	-0.008837	-0.004244	0.999952	
4090														-0.088671	-0.037663	9.779363	-0.714996	-0.699066	-0.009332	0.699072	-0.715044	0.003151	-0.008876	-0.004271	0.999951	
4091														-0.074753	-0.038301	9.779729	-0.715030	-0.699032	-0.009318	0.699037	-0.715078	0.003171	-0.008879	-0.004246	0.999952	
4092														-0.089177	-0.022689	9.780008	-0.715020	-0.699042	-0.009303	0.699048	-0.715068	0.003177	-0.008874	-0.004232	0.999952	
4093														-0.090019	-0.036545	9.764719	-0.715024	-0.699038	-0.009319	0.699044	-0.715072	0.003184	-0.008890	-0.004238	0.999952	
4094														-0.105479	-0.022522	9.794250	-0.715027	-0.699034	-0.009351	0.699040	-0.715076	0.003190	-0.008917	-0.004255	0.999951	
4095														-0.092909	-0.038993	9.823224	-0.715017	-0.699045	-0.009321	0.699050	-0.715066	0.003197	-0.008900	-0.004230	0.999951	
4096														-0.091833	-0.036220	9.764704	-0.715022	-0.699040	-0.009337	0.699045	-0.715070	0.003219	-0.008927	-0.004226	0.999951	
4097														-0.092025	-0.035513	9.750069	-0.715055	-0.699006	-0.009338	0.699011	-0.715103	0.003209	-0.008920	-0.004233	0.999951	
4098														-0.092716	-0.022252	9.779976	-0.715029	-0.699032	-0.009370	0.699038	-0.715078	0.003201	-0.008938	-0.004261	0.999951	
4099														-0.124131	-0.036727	9.807814	-0.715048	-0.699013	-0.009370	0.699018	-0.715097	0.003222	-0.008953	-0.004246	0.999951	
4100														-0.079049	-0.022003	9.765715	-0.715038	-0.699023	-0.009371	0.699028	-0.715087	0.003259	-0.008979	-0.004220	0.999951	
4101														-0.094953	-0.035643	9.764676	-0.715042	-0.699019	-0.009356	0.699024	-0.715091	0.003265	-0.008973	-0.004205	0.999951	
4102														-0.095503	-0.035414	9.764671	-0.715032	-0.699029	-0.009357	0.699034	-0.715081	0.003288	-0.008989	-0.004190	0.999951	
4103														-0.092186	-0.015699	9.648287	-0.715050	-0.699010	-0.009389	0.699015	-0.715099	0.003279	-0.009006	-0.004219	0.999951	
4104														-0.070473	-0.055007	9.837915	-0.715037	-0.699022	-0.009482	0.699028	-0.715087	0.003256	-0.009056	-0.004300	0.999950	
4105														-0.162337	-0.042673	9.982539	-0.715013	-0.699048	-0.009421	0.699053	-0.715063	0.003278	-0.009028	-0.004242	0.999950	
4106														-0.106635	-0.025671	9.559460	-0.715048	-0.699013	-0.009361	0.699017	-0.715097	0.003298	-0.008999	-0.004185	0.999951	
4107														0.004382	-0.039380	9.752721	-0.715035	-0.699025	-0.009454	0.699030	-0.715085	0.003275	-0.009050	-0.004267	0.999950	
4108														-0.072816	-0.041516	9.867810	-0.715038	-0.699021	-0.009470	0.699027	-0.715088	0.003251	-0.009045	-0.004295	0.999950	
4109														-0.186032	-0.015818	9.733692	-0.715043	-0.699017	-0.009486	0.699022	-0.715093	0.003273	-0.009071	-0.004291	0.999950	
4110														-0.103217	-0.053472	9.837110	-0.715032	-0.699028	-0.009503	0.699033	-0.715082	0.003280	-0.009088	-0.004297	0.999949	
4111														0.001864	-0.025774	9.768003	-0.715035	-0.699024	-0.009534	0.699029	-0.715086	0.003287	-0.009115	-0.004315	0.999949	
4112														-0.115087	-0.019233	9.735609	-0.715024	-0.699035	-0.009566	0.699040	-0.715075	0.003294	-0.009143	-0.004331	0.999949	
4113														-0.177611	-0.048921	9.805866	-0.715013	-0.699046	-0.009551	0.699051	-0.715064	0.003301	-0.009137	-0.004317	0.999949	
4114														-0.073523	-0.022939	9.780664	-0.715047	-0.699012	-0.009552	0.699017	-0.715097	0.003291	-0.009131	-0.004324	0.999949	
4115														-0.073445	-0.035528	9.736121	-0.715051	-0.699007	-0.009553	0.699013	-0.715102	0.003313	-0.009147	-0.004309	0.999949	
4116														-0.090694	-0.051317	9.778953	-0.715054	-0.699003	-0.009584	0.699009	-0.715105	0.003320	-0.009174	-0.004326	0.999949	
4117														-0.091349	-0.023960	9.824139	-0.715058	-0.698999	-0.009585	0.699005	-0.715109	0.003326	-0.009179	-0.004322	0.999949	
4118														-0.089986	-0.034540	9.735710	-0.715048	-0.699010	-0.009570	0.699015	-0.715099	0.003348	-0.009184	-0.004296	0.999949	
4119														-0.091657	-0.036270	9.779593	-0.715052	-0.699006	-0.009557	0.699011	-0.715103	0.003324	-0.009157	-0.004304	0.999949	
4120														-0.106481	-0.021671	9.794471	-0.715026	-0.699033	-0.009573	0.699038	-0.715077	0.003316	-0.009164	-0.004321	0.999949	
4121														-0.106960	-0.048728	9.749277	-0.715016	-0.699043	-0.009528	0.699048	-0.715067	0.003353	-0.009157	-0.004263	0.999949	
4122														-0.106448	-0.033142	9.735296	-0.715035	-0.699024	-0.009544	0.699029	-0.715086	0.003359	-0.009173	-0.004270	0.999949	
4123														-0.092458	-0.006268	9.780879	-0.715024	-0.699034	-0.009529	0.699039	-0.715075	0.003381	-0.009178	-0.004244	0.999949	
4124														-0.080062	-0.036657	9.794602	-0.715013	-0.699046	-0.009546	0.699051	-0.715064	0.003373	-0.009184	-0.004261	0.999949	
4125														-0.095815	-0.050673	9.793543	-0.715017	-0.699042	-0.009547	0.699047	-0.715068	0.003364	-0.009178	-0.004268	0.999949	
4126														-0.095696	-0.035982	9.794190	-0.715021	-0.699038	-0.009548	0.699043	-0.715072	0.003371	-0.009184	-0.004264	0.999949	
4127														-0.081030	-0.035914	9.779962	-0.715024	-0.699035	-0.009534	0.699040	-0.715075	0.003347	-0.009157	-0.004271	0.999949	
4128														-0.096056	-0.035319	9.779554	-0.715028	-0.699031	-0.009550	0.699036	-0.715079	0.003338	-0.009163	-0.004289	0.999949	
4129														-0.092924	-0.035755	9.786967	-0.715032	-0.699027	-0.009537	0.699032	-0.715082	0.003329	-0.009146	-0.004286	0.999949	
4130														-0.089792	-0.036190	9.794379	-0.715036	-0.699023	-0.009523	0.699028	-0.715086	0.003319	-0.009130	-0.004283	0.999949	
4131														-0.110512	-0.032540	9.735252	-0.715054	-0.699004	-0.009507	0.699009	-0.715105	0.003311	-0.009113	-0.004278	0.999949	
4132														-0.097627	-0.034944	9.779540	-0.715058	-0.699000	-0.009508	0.699005	-0.715109	0.003318	-0.009119	-0.004273	0.999949	
4133														-0.098951	-0.063430	9.763605	-0.715033	-0.699027	-0.009508	0.699032	-0.715083	0.003326	-0.009124	-0.004268	0.999949	
4134														-0.113253	-0.020034	9.794399	-0.715051	-0.699007	-0.009510	0.699012	-0.715102	0.003347	-0.009140	-0.004254	0.999949	
4135														-0.099773	-0.035151	9.794152	-0.715055	-0.699004	-0.009511	0.699009	-0.715106	0.003338	-0.009135	-0.004261	0.999949	
4136														-0.085907	-0.049577	9.779279	-0.715045	-0.699014	-0.009511	0.699019	-0.715095	0.003376	-0.009161	-0.004234	0.999949	
4137														-0.085479	-0.034143	9.765296	-0.715048	-0.699010	-0.009512	0.699015	-0.715099	0.003368	-0.009156	-0.004241	0.999949	
4138														-0.101254	-0.048135	9.764229	-0.715037	-0.699022	-0.009528	0.699027	-0.715088	0.003375	-0.009173	-0.004248	0.999949	
4139														-0.087413	-0.035315	9.794544	-0.715041	-0.699018	-0.009514	0.699023	-0.715091	0.003366	-0.009157	-0.004244	0.999949	
4140														-0.087862	-0.035191	9.794540	-0.715030	-0.699029	-0.009515	0.699034	-0.715080	0.003373	-0.009162	-0.004239	0.999949	
4141														-0.102076	-0.019261	9.780141	-0.715033	-0.699025	-0.009530	0.699030	-0.715084	0.003380	-0.009178	-0.004245	0.999949	
4142														-0.089605	-0.049614	9.793881	-0.715023	-0.699037	-0.009517	0.699041	-0.715073	0.003386	-0.009172	-0.004231	0.999949	
4143														-0.075001	-0.035409	9.794942	-0.715011	-0.699048	-0.009533	0.699052	-0.715062	0.003409	-0.009200	-0.004226	0.999949	
4144														-0.075582	-0.049275	9.779662	-0.715030	-0.699029	-0.009503	0.699034	-0.715081	0.003384	-0.009161	-0.004223	0.999949	
4145														-0.074821	-0.020066	9.780956	-0.715063	-0.698995	-0.009535	0.699000	-0.715114	0.003375	-0.009177	-0.004252	0.999949	
4146														-0.105312	-0.033378	9.779465	-0.715052	-0.699006	-0.009520	0.699010	-0.715103	0.003412	-0.009193	-0.004215	0.999949	
4147														-0.105866	-0.033149	9.779460	-0.715041	-0.699018	-0.009521	0.699022	-0.715092	0.003404	-0.009188	-0.004221	0.999949	
4148														-0.105976	-0.032501	9.764826	-0.715045	-0.699014	-0.009537	0.699018	-0.715096	0.003410	-0.009204	-0.004228	0.999949	
4149														-0.091896	-0.032964	9.765242	-0.715049	-0.699010	-0.009523	0.699014	-0.715100	0.003417	-0.009198	-0.004213	0.999949	
4150														-0.107525	-0.032888	9.779443	-0.715052	-0.699006	-0.009539	0.699011	-0.715103	0.003424	-0.009215	-0.004220	0.999949	
4151														-0.093950	-0.034028	9.794488	-0.715041	-0.699018	-0.009540	0.699022	-0.715092	0.003431	-0.009220	-0.004216	0.999949	
4152														-0.079312	-0.019858	9.795554	-0.715059	-0.698999	-0.009541	0.699003	-0.715111	0.003436	-0.009225	-0.004212	0.999949	
4153														-0.095001	-0.033728	9.794479	-0.715049	-0.699010	-0.009527	0.699014	-0.715100	0.003443	-0.009220	-0.004197	0.999949	
4154														-0.110184	-0.032924	9.794048	-0.715053	-0.699006	-0.009527	0.699010	-0.715104	0.003465	-0.009235	-0.004182	0.999949	
4155														-0.095603	-0.032798	9.779841	-0.715056	-0.699003	-0.009529	0.699007	-0.715107	0.003442	-0.009220	-0.004200	0.999949	
4156														-0.096045	-0.046777	9.764563	-0.715060	-0.698999	-0.009514	0.699003	-0.715110	0.003433	-0.009203	-0.004196	0.999949	
4157														-0.096394	-0.032661	9.779834	-0.715048	-0.699010	-0.009515	0.699014	-0.715099	0.003440	-0.009209	-0.004192	0.999949	
4158														-0.082662	-0.033734	9.794886	-0.715067	-0.698991	-0.009501	0.698996	-0.715118	0.003430	-0.009192	-0.004188	0.999949	
4159														-0.111556	-0.045220	9.749495	-0.715056	-0.699003	-0.009502	0.699007	-0.715107	0.003437	-0.009198	-0.004184	0.999949	
4160														-0.083661	-0.033484	9.794879	-0.715074	-0.698984	-0.009503	0.698988	-0.715125	0.003444	-0.009203	-0.004180	0.999949	
4161														-0.083443	-0.046041	9.750345	-0.715048	-0.699010	-0.009504	0.699014	-0.715099	0.003467	-0.009219	-0.004164	0.999949	
4162														-0.084576	-0.032546	9.780240	-0.715081	-0.698976	-0.009535	0.698980	-0.715133	0.003487	-0.009256	-0.004171	0.999948	
4163														-0.113830	-0.030792	9.764743	-0.715070	-0.698988	-0.009506	0.698992	-0.715121	0.003449	-0.009208	-0.004178	0.999949	
4164														-0.100884	-0.047216	9.793783	-0.715059	-0.699000	-0.009507	0.699004	-0.715109	0.003441	-0.009204	-0.004185	0.999949	
4165														-0.099938	-0.031157	9.765169	-0.715063	-0.698996	-0.009493	0.699000	-0.715114	0.003462	-0.009208	-0.004160	0.999949	
4166														-0.101879	-0.046865	9.793775	-0.715066	-0.698993	-0.009493	0.698996	-0.715117	0.003454	-0.009203	-0.004166	0.999949	
4167														-0.087798	-0.047393	9.794204	-0.715084	-0.698974	-0.009509	0.698978	-0.715135	0.003460	-0.009219	-0.004172	0.999949	
4168														-0.072788	-0.032716	9.780652	-0.715087	-0.698970	-0.009525	0.698974	-0.715138	0.003451	-0.009224	-0.004190	0.999949	
4169														-0.087919	-0.032102	9.780212	-0.715106	-0.698951	-0.009510	0.698955	-0.715157	0.003457	-0.009218	-0.004175	0.999949	
4170														-0.089239	-0.047235	9.794192	-0.715094	-0.698963	-0.009497	0.698967	-0.715145	0.003434	-0.009191	-0.004182	0.999949	
4171														-0.088599	-0.031755	9.780207	-0.715114	-0.698944	-0.009467	0.698948	-0.715164	0.003454	-0.009184	-0.004147	0.999949	
4172														-0.088580	-0.030899	9.765576	-0.715117	-0.698940	-0.009467	0.698944	-0.715168	0.003445	-0.009178	-0.004153	0.999949	
4173														-0.093011	-0.034643	9.772615	-0.715121	-0.698937	-0.009469	0.698941	-0.715171	0.003459	-0.009189	-0.004144	0.999949	
4174														-0.097442	-0.038388	9.779655	-0.715124	-0.698933	-0.009470	0.698937	-0.715175	0.003473	-0.009200	-0.004135	0.999949	
4175														-0.106299	-0.045774	9.793733	-0.715143	-0.698914	-0.009455	0.698918	-0.715194	0.003481	-0.009195	-0.004119	0.999949	
4176														-0.076564	-0.031504	9.780628	-0.715116	-0.698941	-0.009471	0.698945	-0.715167	0.003473	-0.009201	-0.004136	0.999949	
4177														-0.092417	-0.045633	9.779535	-0.715119	-0.698938	-0.009502	0.698941	-0.715170	0.003494	-0.009238	-0.004142	0.999949	
4178														-0.107241	-0.044464	9.764458	-0.715123	-0.698934	-0.009503	0.698938	-0.715174	0.003486	-0.009233	-0.004149	0.999949	
4179														-0.092603	-0.030079	9.765541	-0.715127	-0.698930	-0.009474	0.698933	-0.715178	0.003524	-0.009238	-0.004102	0.999949	
4180														-0.093617	-0.030371	9.780165	-0.715145	-0.698912	-0.009474	0.698915	-0.715196	0.003530	-0.009243	-0.004098	0.999949	
4181														-0.093177	-0.028943	9.750905	-0.715149	-0.698908	-0.009461	0.698911	-0.715200	0.003537	-0.009238	-0.004083	0.999949	
4182														-0.108669	-0.028778	9.765083	-0.715153	-0.698904	-0.009432	0.698907	-0.715204	0.003543	-0.009222	-0.004058	0.999949	
4183														-0.108697	-0.027979	9.750450	-0.715156	-0.698901	-0.009447	0.698903	-0.715207	0.003550	-0.009237	-0.004064	0.999949	
4184														-0.105808	-0.031932	9.757712	-0.715168	-0.698889	-0.009433	0.698892	-0.715218	0.003563	-0.009237	-0.004045	0.999949	
4185														-0.102918	-0.035885	9.764973	-0.715179	-0.698878	-0.009420	0.698880	-0.715230	0.003577	-0.009237	-0.004025	0.999949	
4186														-0.096659	-0.029265	9.780138	-0.715152	-0.698905	-0.009450	0.698908	-0.715203	0.003571	-0.009255	-0.004051	0.999949	
4187														-0.082686	-0.029641	9.780583	-0.715171	-0.698886	-0.009437	0.698888	-0.715222	0.003608	-0.009271	-0.004015	0.999949	
4188														-0.082820	-0.042734	9.750684	-0.715174	-0.698883	-0.009439	0.698885	-0.715225	0.003614	-0.009276	-0.004012	0.999949	
4189														-0.098052	-0.028161	9.765494	-0.715177	-0.698879	-0.009454	0.698881	-0.715228	0.003620	-0.009292	-0.004018	0.999949	
4190														-0.084919	-0.043786	9.779930	-0.715196	-0.698860	-0.009439	0.698862	-0.715247	0.003625	-0.009285	-0.004004	0.999949	
4191														-0.115104	-0.043194	9.793645	-0.715185	-0.698872	-0.009425	0.698874	-0.715236	0.003633	-0.009280	-0.003989	0.999949	
4192														-0.100492	-0.042889	9.779468	-0.715203	-0.698853	-0.009426	0.698855	-0.715254	0.003638	-0.009284	-0.003985	0.999949	
4193														-0.114561	-0.040873	9.749755	-0.715192	-0.698865	-0.009382	0.698866	-0.715243	0.003645	-0.009258	-0.003950	0.999949	
4194														-0.115968	-0.027893	9.794271	-0.715210	-0.698846	-0.009399	0.698848	-0.715261	0.003651	-0.009274	-0.003957	0.999949	
4195														-0.101512	-0.027633	9.780094	-0.715229	-0.698827	-0.009399	0.698829	-0.715279	0.003672	-0.009289	-0.003942	0.999949	
4196														-0.102474	-0.042192	9.779451	-0.715231	-0.698824	-0.009401	0.698826	-0.715282	0.003649	-0.009274	-0.003960	0.999949	
4197														-0.088304	-0.028548	9.795171	-0.715235	-0.698821	-0.009386	0.698822	-0.715286	0.003671	-0.009279	-0.003934	0.999949	
4198														-0.087844	-0.027125	9.765912	-0.715238	-0.698818	-0.009387	0.698819	-0.715289	0.003663	-0.009274	-0.003940	0.999949	
4199														-0.104394	-0.042345	9.794065	-0.715242	-0.698814	-0.009373	0.698815	-0.715293	0.003685	-0.009280	-0.003914	0.999949	
4200														-0.075089	-0.042552	9.780356	-0.715260	-0.698796	-0.009374	0.698797	-0.715310	0.003661	-0.009263	-0.003932	0.999949	
4201														-0.089738	-0.041384	9.765263	-0.715263	-0.698792	-0.009375	0.698793	-0.715314	0.003683	-0.009280	-0.003917	0.999949	
4202														-0.104468	-0.025952	9.765433	-0.715268	-0.698788	-0.009346	0.698789	-0.715318	0.003705	-0.009274	-0.003881	0.999949	
4203														-0.106272	-0.041546	9.794048	-0.715286	-0.698770	-0.009332	0.698771	-0.715336	0.003696	-0.009258	-0.003877	0.999950	
4204														-0.076534	-0.041061	9.765717	-0.715274	-0.698781	-0.009333	0.698782	-0.715325	0.003718	-0.009274	-0.003862	0.999950	
4205														-0.092151	-0.041146	9.779876	-0.715292	-0.698763	-0.009334	0.698764	-0.715342	0.003694	-0.009258	-0.003880	0.999950	
4206														-0.076982	-0.026290	9.766347	-0.715296	-0.698760	-0.009320	0.698761	-0.715346	0.003700	-0.009252	-0.003866	0.999950	
4207														-0.107080	-0.039823	9.764776	-0.715314	-0.698741	-0.009306	0.698742	-0.715364	0.003691	-0.009236	-0.003862	0.999950	
4208														-0.107574	-0.025802	9.780034	-0.715316	-0.698738	-0.009322	0.698740	-0.715367	0.003682	-0.009241	-0.003880	0.999950	
4209														-0.109103	-0.040875	9.794020	-0.715306	-0.698750	-0.009308	0.698750	-0.715356	0.003719	-0.009257	-0.003843	0.999950	
4210														-0.108188	-0.038787	9.750133	-0.715338	-0.698716	-0.009309	0.698717	-0.715388	0.003710	-0.009252	-0.003850	0.999950	
4211														-0.109608	-0.040120	9.779382	-0.715341	-0.698714	-0.009325	0.698715	-0.715391	0.003686	-0.009247	-0.003879	0.999950	
4212														-0.079764	-0.025757	9.766326	-0.715344	-0.698710	-0.009296	0.698711	-0.715394	0.003677	-0.009220	-0.003865	0.999950	
4213														-0.095168	-0.039815	9.765218	-0.715332	-0.698723	-0.009297	0.698724	-0.715382	0.003669	-0.009215	-0.003872	0.999950	
4214														-0.081628	-0.040703	9.780311	-0.715336	-0.698719	-0.009298	0.698720	-0.715386	0.003707	-0.009242	-0.003845	0.999950	
4215														-0.097250	-0.040703	9.794463	-0.715339	-0.698716	-0.009284	0.698717	-0.715389	0.003683	-0.009215	-0.003853	0.999950	
4216														-0.096243	-0.024871	9.765839	-0.715342	-0.698713	-0.009300	0.698714	-0.715392	0.003674	-0.009220	-0.003870	0.999950	
4217														-0.111865	-0.024773	9.779989	-0.715361	-0.698694	-0.009255	0.698694	-0.715411	0.003711	-0.009214	-0.003812	0.999950	
4218														-0.098508	-0.054242	9.779191	-0.715349	-0.698706	-0.009272	0.698707	-0.715398	0.003688	-0.009210	-0.003841	0.999950	
4219														-0.098434	-0.039599	9.779821	-0.715367	-0.698688	-0.009243	0.698689	-0.715416	0.003678	-0.009182	-0.003827	0.999951	
4220														-0.069450	-0.040292	9.780769	-0.715370	-0.698685	-0.009229	0.698686	-0.715420	0.003669	-0.009166	-0.003823	0.999951	
4221														-0.099165	-0.039412	9.779814	-0.715373	-0.698682	-0.009245	0.698683	-0.715422	0.003661	-0.009172	-0.003841	0.999951	
4222														-0.114456	-0.038966	9.779331	-0.715391	-0.698663	-0.009262	0.698664	-0.715440	0.003683	-0.009199	-0.003836	0.999950	
4223														-0.115270	-0.039001	9.779321	-0.715407	-0.698645	-0.009308	0.698646	-0.715458	0.003689	-0.009237	-0.003864	0.999950	
4224														-0.086998	-0.040507	9.794900	-0.715396	-0.698658	-0.009280	0.698659	-0.715446	0.003665	-0.009200	-0.003861	0.999950	
4225														-0.086291	-0.039200	9.765644	-0.715429	-0.698624	-0.009281	0.698625	-0.715478	0.003656	-0.009194	-0.003868	0.999950	
4226														-0.086841	-0.039182	9.765639	-0.715416	-0.698636	-0.009298	0.698638	-0.715466	0.003662	-0.009211	-0.003875	0.999950	
4227														-0.088497	-0.040400	9.794887	-0.715419	-0.698633	-0.009314	0.698635	-0.715469	0.003669	-0.009227	-0.003882	0.999950	
4228														-0.089154	-0.040380	9.794881	-0.715437	-0.698615	-0.009330	0.698616	-0.715487	0.003676	-0.009244	-0.003889	0.999950	
4229														-0.103395	-0.024647	9.780400	-0.715440	-0.698612	-0.009316	0.698613	-0.715490	0.003667	-0.009227	-0.003885	0.999950	
4230														-0.104232	-0.039262	9.779762	-0.715457	-0.698594	-0.009332	0.698596	-0.715507	0.003658	-0.009233	-0.003902	0.999950	
4231														-0.105567	-0.054604	9.793750	-0.715475	-0.698576	-0.009333	0.698578	-0.715525	0.003633	-0.009216	-0.003920	0.999950	
4232														-0.090207	-0.025116	9.780870	-0.715477	-0.698573	-0.009349	0.698575	-0.715528	0.003655	-0.009243	-0.003916	0.999950	
4233														-0.090907	-0.038945	9.765603	-0.715466	-0.698585	-0.009366	0.698586	-0.715516	0.003693	-0.009281	-0.003901	0.999949	
4234														-0.092068	-0.039545	9.780223	-0.715483	-0.698568	-0.009382	0.698569	-0.715533	0.003668	-0.009275	-0.003929	0.999949	
4235														-0.093573	-0.040716	9.809472	-0.715501	-0.698549	-0.009367	0.698550	-0.715552	0.003690	-0.009280	-0.003903	0.999949	
4236														-0.078423	-0.039595	9.780704	-0.715504	-0.698546	-0.009353	0.698547	-0.715555	0.003697	-0.009275	-0.003888	0.999949	
4237														-0.078415	-0.038797	9.766074	-0.715507	-0.698543	-0.009353	0.698544	-0.715558	0.003704	-0.009280	-0.003883	0.999949	
4238														-0.078485	-0.023938	9.766704	-0.715511	-0.698539	-0.009324	0.698540	-0.715561	0.003711	-0.009265	-0.003858	0.999950	
4239														-0.108760	-0.023488	9.780345	-0.715514	-0.698536	-0.009325	0.698537	-0.715564	0.003733	-0.009280	-0.003843	0.999950	
4240														-0.094726	-0.023599	9.780831	-0.715548	-0.698502	-0.009312	0.698502	-0.715598	0.003753	-0.009285	-0.003819	0.999950	
4241														-0.096132	-0.024557	9.810081	-0.715551	-0.698499	-0.009283	0.698499	-0.715601	0.003744	-0.009258	-0.003806	0.999950	
4242														-0.095826	-0.037936	9.780194	-0.715538	-0.698512	-0.009300	0.698512	-0.715588	0.003721	-0.009254	-0.003834	0.999950	
4243														-0.081237	-0.037895	9.766055	-0.715555	-0.698494	-0.009332	0.698495	-0.715605	0.003711	-0.009270	-0.003862	0.999950	
4244														-0.112535	-0.039020	9.808941	-0.715573	-0.698476	-0.009317	0.698477	-0.715623	0.003703	-0.009254	-0.003858	0.999950	
4245														-0.112004	-0.023654	9.794942	-0.715576	-0.698473	-0.009303	0.698474	-0.715626	0.003694	-0.009238	-0.003855	0.999950	
4246														-0.097100	-0.037360	9.765549	-0.715579	-0.698470	-0.009304	0.698471	-0.715629	0.003686	-0.009233	-0.003861	0.999950	
4247														-0.083015	-0.023655	9.781299	-0.715582	-0.698467	-0.009291	0.698468	-0.715632	0.003677	-0.009217	-0.003858	0.999950	
4248														-0.098396	-0.051799	9.764910	-0.715584	-0.698464	-0.009307	0.698465	-0.715635	0.003699	-0.009245	-0.003854	0.999950	
4249														-0.113443	-0.022715	9.780294	-0.715617	-0.698431	-0.009309	0.698432	-0.715667	0.003690	-0.009239	-0.003861	0.999950	
4250														-0.099088	-0.036979	9.765531	-0.715605	-0.698443	-0.009294	0.698444	-0.715655	0.003697	-0.009234	-0.003846	0.999950	
4251														-0.100155	-0.037473	9.780152	-0.715608	-0.698440	-0.009311	0.698441	-0.715658	0.003704	-0.009250	-0.003852	0.999950	
4252														-0.100759	-0.037404	9.780146	-0.715625	-0.698422	-0.009312	0.698423	-0.715675	0.003710	-0.009255	-0.003849	0.999950	
4253														-0.071522	-0.037285	9.766517	-0.715614	-0.698434	-0.009298	0.698435	-0.715664	0.003732	-0.009261	-0.003823	0.999950	
4254														-0.101577	-0.050857	9.764882	-0.715617	-0.698431	-0.009269	0.698431	-0.715667	0.003739	-0.009245	-0.003798	0.999950	
4255														-0.102142	-0.036459	9.780135	-0.715636	-0.698412	-0.009240	0.698412	-0.715686	0.003760	-0.009239	-0.003763	0.999950	
4256														-0.088626	-0.037152	9.795260	-0.715639	-0.698409	-0.009256	0.698409	-0.715689	0.003782	-0.009266	-0.003758	0.999950	
4257														-0.103241	-0.036004	9.780125	-0.715642	-0.698406	-0.009227	0.698406	-0.715692	0.003773	-0.009239	-0.003744	0.999950	
4258														-0.088100	-0.020989	9.766628	-0.715615	-0.698434	-0.009229	0.698434	-0.715665	0.003766	-0.009235	-0.003751	0.999950	
4259														-0.089450	-0.036058	9.780623	-0.715633	-0.698415	-0.009215	0.698415	-0.715683	0.003787	-0.009240	-0.003726	0.999950	
4260														-0.103982	-0.006219	9.781367	-0.715636	-0.698413	-0.009217	0.698412	-0.715686	0.003794	-0.009246	-0.003722	0.999950	
4261														-0.105185	-0.035254	9.780107	-0.715639	-0.698409	-0.009203	0.698409	-0.715689	0.003816	-0.009252	-0.003696	0.999950	
4262														-0.105788	-0.034973	9.780102	-0.715642	-0.698406	-0.009204	0.698405	-0.715692	0.003838	-0.009267	-0.003681	0.999950	
4263														-0.092335	-0.035805	9.795231	-0.715630	-0.698419	-0.009220	0.698418	-0.715680	0.003845	-0.009284	-0.003688	0.999950	
4264														-0.078308	-0.036178	9.795735	-0.715632	-0.698416	-0.009237	0.698416	-0.715682	0.003837	-0.009290	-0.003706	0.999950	
4265														-0.108393	-0.050170	9.794083	-0.715664	-0.698383	-0.009238	0.698383	-0.715714	0.003827	-0.009285	-0.003713	0.999950	
4266														-0.079255	-0.036194	9.795727	-0.715637	-0.698411	-0.009240	0.698411	-0.715687	0.003820	-0.009281	-0.003720	0.999950	
4267														-0.093341	-0.034452	9.765959	-0.715640	-0.698408	-0.009226	0.698407	-0.715690	0.003842	-0.009286	-0.003694	0.999950	
4268														-0.079781	-0.035062	9.781094	-0.715644	-0.698405	-0.009212	0.698404	-0.715694	0.003864	-0.009291	-0.003669	0.999950	
4269														-0.093911	-0.033276	9.751325	-0.715661	-0.698387	-0.009214	0.698386	-0.715711	0.003869	-0.009297	-0.003665	0.999950	
4270														-0.095461	-0.034330	9.780572	-0.715679	-0.698368	-0.009200	0.698367	-0.715729	0.003876	-0.009291	-0.003651	0.999950	
4271														-0.095481	-0.033595	9.765942	-0.715696	-0.698351	-0.009216	0.698349	-0.715746	0.003882	-0.009307	-0.003658	0.999950	
4272														-0.096615	-0.034138	9.780562	-0.715684	-0.698363	-0.009218	0.698362	-0.715734	0.003889	-0.009314	-0.003654	0.999950	
4273														-0.097113	-0.034069	9.780557	-0.715717	-0.698330	-0.009219	0.698329	-0.715767	0.003879	-0.009308	-0.003662	0.999950	
4274														-0.097752	-0.048791	9.779929	-0.715689	-0.698359	-0.009220	0.698358	-0.715739	0.003841	-0.009282	-0.003690	0.999950	
4275														-0.068818	-0.020702	9.796837	-0.715707	-0.698340	-0.009206	0.698339	-0.715757	0.003863	-0.009287	-0.003665	0.999950	
4276														-0.097715	-0.033408	9.765920	-0.715694	-0.698353	-0.009208	0.698353	-0.715744	0.003824	-0.009261	-0.003694	0.999950	
4277														-0.084966	-0.035491	9.810314	-0.715697	-0.698350	-0.009179	0.698350	-0.715747	0.003831	-0.009245	-0.003668	0.999951	
4278														-0.098450	-0.033113	9.765914	-0.715700	-0.698348	-0.009180	0.698347	-0.715749	0.003837	-0.009250	-0.003665	0.999950	
4279														-0.099303	-0.018917	9.781158	-0.715703	-0.698345	-0.009182	0.698344	-0.715752	0.003859	-0.009267	-0.003650	0.999950	
4280														-0.100086	-0.033375	9.780530	-0.715705	-0.698342	-0.009168	0.698341	-0.715755	0.003851	-0.009251	-0.003646	0.999951	
4281														-0.085521	-0.032995	9.766420	-0.715707	-0.698340	-0.009200	0.698338	-0.715757	0.003873	-0.009289	-0.003653	0.999950	
4282														-0.100814	-0.032357	9.765892	-0.715697	-0.698351	-0.009155	0.698350	-0.715746	0.003911	-0.009284	-0.003595	0.999950	
4283														-0.086622	-0.032323	9.766413	-0.715714	-0.698334	-0.009157	0.698332	-0.715763	0.003901	-0.009279	-0.003602	0.999950	
4284														-0.088035	-0.033531	9.795662	-0.715716	-0.698331	-0.009143	0.698330	-0.715766	0.003878	-0.009252	-0.003609	0.999951	
4285														-0.087891	-0.032850	9.781032	-0.715734	-0.698313	-0.009144	0.698312	-0.715783	0.003884	-0.009257	-0.003606	0.999951	
4286														-0.088979	-0.033233	9.795654	-0.715737	-0.698310	-0.009130	0.698309	-0.715786	0.003906	-0.009263	-0.003580	0.999951	
4287														-0.088451	-0.031781	9.766398	-0.715754	-0.698293	-0.009132	0.698291	-0.715804	0.003912	-0.009268	-0.003577	0.999951	
4288														-0.089162	-0.046186	9.765774	-0.715743	-0.698305	-0.009103	0.698303	-0.715792	0.003919	-0.009252	-0.003552	0.999951	
4289														-0.090202	-0.046512	9.780397	-0.715716	-0.698333	-0.009104	0.698330	-0.715765	0.003942	-0.009269	-0.003536	0.999951	
4290														-0.076504	-0.032753	9.796166	-0.715747	-0.698300	-0.009136	0.698298	-0.715796	0.003932	-0.009285	-0.003565	0.999951	
4291														-0.106276	-0.032226	9.795102	-0.715734	-0.698313	-0.009122	0.698311	-0.715784	0.003924	-0.009269	-0.003562	0.999951	
4292														-0.105643	-0.030882	9.765846	-0.715722	-0.698326	-0.009123	0.698324	-0.715771	0.003931	-0.009275	-0.003558	0.999951	
4293														-0.091326	-0.045110	9.751126	-0.715709	-0.698339	-0.009140	0.698337	-0.715759	0.003938	-0.009292	-0.003564	0.999950	
4294														-0.107695	-0.017329	9.795704	-0.715712	-0.698336	-0.009141	0.698334	-0.715761	0.003945	-0.009298	-0.003560	0.999950	
4295														-0.093919	-0.032164	9.795611	-0.715699	-0.698349	-0.009158	0.698347	-0.715748	0.003952	-0.009315	-0.003567	0.999950	
4296														-0.078835	-0.045986	9.766270	-0.715715	-0.698332	-0.009159	0.698331	-0.715765	0.003897	-0.009277	-0.003607	0.999950	
4297														-0.080074	-0.032610	9.796138	-0.715718	-0.698329	-0.009161	0.698328	-0.715767	0.003919	-0.009294	-0.003592	0.999950	
4298														-0.095614	-0.046744	9.794978	-0.715691	-0.698357	-0.009162	0.698355	-0.715740	0.003942	-0.009311	-0.003577	0.999950	
4299														-0.110854	-0.046306	9.794436	-0.715723	-0.698324	-0.009164	0.698322	-0.715773	0.003947	-0.009316	-0.003574	0.999950	
4300														-0.095875	-0.031097	9.780963	-0.715711	-0.698336	-0.009135	0.698334	-0.715761	0.003955	-0.009300	-0.003549	0.999950	
4301														-0.096034	-0.016290	9.781579	-0.715728	-0.698319	-0.009136	0.698317	-0.715778	0.003946	-0.009295	-0.003556	0.999950	
4302														-0.096190	-0.058953	9.750466	-0.715716	-0.698332	-0.009153	0.698330	-0.715765	0.003953	-0.009312	-0.003563	0.999950	
4303														-0.097554	-0.045575	9.780330	-0.715733	-0.698314	-0.009155	0.698312	-0.715782	0.003929	-0.009296	-0.003581	0.999950	
4304														-0.098549	-0.045957	9.794952	-0.715721	-0.698326	-0.009126	0.698324	-0.715771	0.003967	-0.009302	-0.003534	0.999950	
4305														-0.098496	-0.045173	9.780323	-0.715738	-0.698309	-0.009142	0.698307	-0.715787	0.003942	-0.009297	-0.003562	0.999950	
4306														-0.084308	-0.045508	9.780860	-0.715710	-0.698338	-0.009144	0.698336	-0.715759	0.003935	-0.009293	-0.003569	0.999950	
4307														-0.084702	-0.045224	9.780858	-0.715714	-0.698335	-0.009099	0.698332	-0.715763	0.003957	-0.009276	-0.003522	0.999951	
4308														-0.085477	-0.030760	9.796099	-0.715731	-0.698317	-0.009085	0.698314	-0.715780	0.003978	-0.009281	-0.003497	0.999951	
4309														-0.099720	-0.043761	9.765683	-0.715748	-0.698299	-0.009087	0.698297	-0.715798	0.003969	-0.009276	-0.003505	0.999951	
4310														-0.100217	-0.043798	9.765678	-0.715750	-0.698297	-0.009104	0.698295	-0.715800	0.003960	-0.009282	-0.003523	0.999951	
4311														-0.087744	-0.045897	9.810094	-0.715753	-0.698295	-0.009106	0.698292	-0.715802	0.003951	-0.009277	-0.003530	0.999951	
4312														-0.087716	-0.016559	9.811325	-0.715755	-0.698292	-0.009092	0.698290	-0.715804	0.003942	-0.009261	-0.003527	0.999951	
4313														-0.101602	-0.043488	9.765665	-0.715773	-0.698274	-0.009079	0.698271	-0.715822	0.003979	-0.009277	-0.003491	0.999951	
4314														-0.102603	-0.043869	9.780287	-0.715760	-0.698287	-0.009065	0.698285	-0.715809	0.003955	-0.009251	-0.003499	0.999951	
4315														-0.117634	-0.043573	9.779735	-0.715763	-0.698285	-0.009066	0.698282	-0.715811	0.003962	-0.009256	-0.003495	0.999951	
4316														-0.089163	-0.029984	9.796068	-0.715764	-0.698283	-0.009068	0.698281	-0.715813	0.003938	-0.009240	-0.003513	0.999951	
4317														-0.088442	-0.028698	9.766814	-0.715767	-0.698281	-0.009053	0.698278	-0.715815	0.003944	-0.009235	-0.003499	0.999951	
4318														-0.104189	-0.028856	9.780885	-0.715769	-0.698278	-0.009055	0.698276	-0.715818	0.003966	-0.009251	-0.003484	0.999951	
4319														-0.076277	-0.044253	9.795991	-0.715757	-0.698291	-0.009042	0.698288	-0.715806	0.003989	-0.009257	-0.003459	0.999951	
4320														-0.091164	-0.029173	9.796052	-0.715790	-0.698258	-0.009028	0.698255	-0.715838	0.003979	-0.009241	-0.003456	0.999951	
4321														-0.090437	-0.027995	9.766798	-0.715776	-0.698272	-0.009045	0.698269	-0.715824	0.003955	-0.009236	-0.003484	0.999951	
4322														-0.091179	-0.042506	9.766179	-0.715794	-0.698253	-0.009031	0.698251	-0.715842	0.003992	-0.009252	-0.003448	0.999951	
4323														-0.122554	-0.029096	9.809555	-0.715780	-0.698267	-0.009048	0.698264	-0.715829	0.003984	-0.009258	-0.003466	0.999951	
4324														-0.106250	-0.041550	9.750990	-0.715782	-0.698265	-0.009034	0.698263	-0.715831	0.003960	-0.009231	-0.003474	0.999951	
4325														-0.092570	-0.042400	9.766166	-0.715784	-0.698263	-0.009050	0.698261	-0.715833	0.003950	-0.009237	-0.003492	0.999951	
4326														-0.078993	-0.043142	9.781343	-0.715801	-0.698245	-0.009037	0.698243	-0.715850	0.003956	-0.009231	-0.003478	0.999951	
4327														-0.079205	-0.028438	9.781954	-0.715818	-0.698228	-0.009038	0.698226	-0.715867	0.003931	-0.009215	-0.003497	0.999951	
4328														-0.083482	-0.035790	9.785161	-0.715813	-0.698233	-0.009040	0.698231	-0.715862	0.003945	-0.009226	-0.003488	0.999951	
4329														-0.087758	-0.043142	9.788368	-0.715808	-0.698239	-0.009042	0.698236	-0.715856	0.003959	-0.009237	-0.003479	0.999951	
4330														-0.095328	-0.038932	9.780924	-0.715817	-0.698229	-0.009043	0.698226	-0.715866	0.003965	-0.009243	-0.003476	0.999951	
4331														-0.102898	-0.034723	9.773481	-0.715827	-0.698219	-0.009045	0.698217	-0.715876	0.003972	-0.009248	-0.003472	0.999951	
4332														-0.082707	-0.043053	9.795945	-0.715814	-0.698232	-0.009046	0.698230	-0.715863	0.003980	-0.009255	-0.003468	0.999951	
4333														-0.097058	-0.027499	9.781368	-0.715816	-0.698230	-0.009032	0.698228	-0.715865	0.003971	-0.009239	-0.003464	0.999951	
4334														-0.098755	-0.043277	9.810001	-0.715818	-0.698228	-0.009035	0.698226	-0.715867	0.003963	-0.009235	-0.003471	0.999951	
4335														-0.083371	-0.042180	9.781310	-0.715836	-0.698210	-0.009021	0.698208	-0.715884	0.003954	-0.009219	-0.003468	0.999951	
4336														-0.113603	-0.027560	9.795417	-0.715853	-0.698193	-0.009022	0.698190	-0.715901	0.003991	-0.009246	-0.003442	0.999951	
4337														-0.098798	-0.041093	9.766111	-0.715839	-0.698207	-0.009070	0.698204	-0.715888	0.003998	-0.009284	-0.003471	0.999951	
4338														-0.113787	-0.011627	9.766763	-0.715826	-0.698220	-0.009056	0.698217	-0.715875	0.004005	-0.009279	-0.003456	0.999951	
4339														-0.100953	-0.027475	9.795961	-0.715828	-0.698218	-0.009058	0.698215	-0.715877	0.004012	-0.009285	-0.003453	0.999951	
4340														-0.100350	-0.040725	9.766096	-0.715831	-0.698215	-0.009029	0.698212	-0.715880	0.004003	-0.009259	-0.003439	0.999951	
4341														-0.101063	-0.026629	9.781330	-0.715848	-0.698198	-0.009030	0.698195	-0.715896	0.003978	-0.009243	-0.003457	0.999951	
4342														-0.085816	-0.040259	9.752033	-0.715850	-0.698196	-0.009032	0.698193	-0.715898	0.003970	-0.009238	-0.003464	0.999951	
4343														-0.087361	-0.041399	9.781279	-0.715837	-0.698209	-0.009019	0.698207	-0.715885	0.003962	-0.009223	-0.003460	0.999951	
4344														-0.116943	-0.026310	9.780748	-0.715824	-0.698222	-0.009021	0.698220	-0.715873	0.003970	-0.009229	-0.003457	0.999951	
4345														-0.088170	-0.026462	9.781883	-0.715842	-0.698204	-0.009007	0.698201	-0.715890	0.003976	-0.009224	-0.003443	0.999952	
4346														-0.103389	-0.040815	9.780697	-0.715844	-0.698202	-0.009009	0.698199	-0.715892	0.003967	-0.009219	-0.003451	0.999952	
4347														-0.089647	-0.026925	9.796500	-0.715816	-0.698231	-0.009011	0.698228	-0.715864	0.003959	-0.009215	-0.003458	0.999952	
4348														-0.104340	-0.040728	9.780688	-0.715833	-0.698213	-0.009013	0.698210	-0.715882	0.003965	-0.009221	-0.003455	0.999952	
4349														-0.090726	-0.041366	9.795881	-0.715835	-0.698211	-0.009000	0.698208	-0.715884	0.003956	-0.009205	-0.003452	0.999952	
4350														-0.105285	-0.040539	9.780678	-0.715822	-0.698225	-0.009016	0.698222	-0.715870	0.003963	-0.009222	-0.003459	0.999951	
4351														-0.090442	-0.025273	9.767234	-0.715839	-0.698207	-0.008988	0.698204	-0.715888	0.003969	-0.009205	-0.003434	0.999952	
4352														-0.105644	-0.039536	9.766045	-0.715857	-0.698190	-0.008989	0.698187	-0.715905	0.003975	-0.009211	-0.003431	0.999952	
4353														-0.091969	-0.025369	9.781851	-0.715829	-0.698218	-0.008961	0.698215	-0.715877	0.003998	-0.009206	-0.003395	0.999952	
4354														-0.091955	-0.038959	9.766615	-0.715832	-0.698215	-0.008932	0.698212	-0.715880	0.004020	-0.009201	-0.003359	0.999952	
4355														-0.107611	-0.024559	9.781266	-0.715819	-0.698229	-0.008949	0.698225	-0.715867	0.004027	-0.009218	-0.003366	0.999952	
4356														-0.078588	-0.053325	9.766576	-0.715821	-0.698226	-0.008936	0.698223	-0.715869	0.004048	-0.009224	-0.003341	0.999952	
4357														-0.094721	-0.025001	9.796457	-0.715822	-0.698225	-0.008953	0.698222	-0.715870	0.004039	-0.009229	-0.003359	0.999952	
4358														-0.078941	-0.037995	9.752551	-0.715824	-0.698224	-0.008954	0.698220	-0.715872	0.004031	-0.009224	-0.003367	0.999952	
4359														-0.095142	-0.024362	9.781823	-0.715811	-0.698237	-0.008956	0.698233	-0.715859	0.004038	-0.009231	-0.003363	0.999952	
4360														-0.125555	-0.039222	9.794673	-0.715813	-0.698235	-0.008943	0.698231	-0.715861	0.004029	-0.009215	-0.003360	0.999952	
4361														-0.082144	-0.039534	9.796413	-0.715829	-0.698218	-0.008960	0.698214	-0.715877	0.004035	-0.009231	-0.003368	0.999952	
4362														-0.081630	-0.038413	9.767159	-0.715800	-0.698247	-0.008992	0.698244	-0.715849	0.004027	-0.009249	-0.003397	0.999951	
4363														-0.082333	-0.053080	9.766546	-0.715817	-0.698230	-0.008994	0.698226	-0.715866	0.004033	-0.009254	-0.003393	0.999951	
4364														-0.099041	-0.025431	9.811045	-0.715471	-0.698583	-0.009152	0.698582	-0.715520	0.003836	-0.009228	-0.003649	0.999951	
4365														-0.098401	-0.038739	9.781185	-0.715467	-0.698587	-0.009139	0.698586	-0.715516	0.003842	-0.009224	-0.003635	0.999951	
4366														-0.100029	-0.039823	9.810429	-0.715468	-0.698586	-0.009141	0.698585	-0.715517	0.003834	-0.009219	-0.003643	0.999951	
4367														-0.099314	-0.023964	9.781783	-0.715460	-0.698594	-0.009159	0.698593	-0.715509	0.003840	-0.009236	-0.003651	0.999951	
4368														-0.100703	-0.039134	9.795793	-0.715496	-0.698556	-0.009177	0.698555	-0.715546	0.003861	-0.009263	-0.003648	0.999950	
4369														-0.099423	-0.037257	9.751916	-0.715483	-0.698570	-0.009164	0.698569	-0.715532	0.003837	-0.009238	-0.003656	0.999951	
4370														-0.086315	-0.038552	9.781750	-0.715481	-0.698572	-0.009166	0.698571	-0.715531	0.003829	-0.009233	-0.003664	0.999951	
4371														-0.101502	-0.038325	9.781155	-0.715496	-0.698557	-0.009168	0.698556	-0.715545	0.003850	-0.009250	-0.003650	0.999951	
4372														-0.086951	-0.052287	9.766510	-0.715494	-0.698558	-0.009171	0.698557	-0.715544	0.003857	-0.009256	-0.003647	0.999951	
4373														-0.087862	-0.038183	9.781737	-0.715498	-0.698555	-0.009157	0.698554	-0.715547	0.003833	-0.009230	-0.003655	0.999951	
4374														-0.088181	-0.023372	9.782340	-0.715512	-0.698540	-0.009144	0.698539	-0.715562	0.003854	-0.009236	-0.003630	0.999951	
4375														-0.102738	-0.037083	9.766514	-0.715510	-0.698543	-0.009132	0.698541	-0.715559	0.003846	-0.009221	-0.003627	0.999951	
4376														-0.103186	-0.036961	9.766510	-0.715498	-0.698555	-0.009134	0.698554	-0.715547	0.003853	-0.009227	-0.003624	0.999951	
4377														-0.089048	-0.036878	9.767100	-0.715509	-0.698544	-0.009121	0.698543	-0.715558	0.003859	-0.009222	-0.003610	0.999951	
4378														-0.090793	-0.037749	9.796344	-0.715530	-0.698522	-0.009108	0.698521	-0.715579	0.003895	-0.009239	-0.003575	0.999951	
4379														-0.091296	-0.037570	9.796340	-0.715484	-0.698570	-0.009110	0.698569	-0.715533	0.003873	-0.009225	-0.003593	0.999951	
4380														-0.091037	-0.022259	9.782317	-0.715480	-0.698574	-0.009098	0.698573	-0.715529	0.003881	-0.009220	-0.003579	0.999951	
4381														-0.091651	-0.051356	9.781105	-0.715498	-0.698555	-0.009100	0.698553	-0.715547	0.003886	-0.009226	-0.003576	0.999951	
4382														-0.092639	-0.037094	9.796329	-0.715501	-0.698553	-0.009071	0.698551	-0.715549	0.003893	-0.009211	-0.003551	0.999951	
4383														-0.092329	-0.036317	9.781703	-0.715491	-0.698563	-0.009058	0.698561	-0.715540	0.003869	-0.009185	-0.003559	0.999951	
4384														-0.092728	-0.036349	9.781699	-0.715460	-0.698595	-0.009076	0.698593	-0.715508	0.003862	-0.009192	-0.003577	0.999951	
4385														-0.107266	-0.035709	9.766471	-0.715464	-0.698591	-0.009078	0.698590	-0.715512	0.003853	-0.009187	-0.003586	0.999951	
4386														-0.077946	-0.035125	9.753043	-0.715439	-0.698616	-0.009081	0.698615	-0.715488	0.003875	-0.009205	-0.003572	0.999951	
4387														-0.079697	-0.050677	9.781685	-0.715440	-0.698616	-0.009053	0.698614	-0.715488	0.003882	-0.009190	-0.003547	0.999951	
4388														-0.108674	-0.020498	9.767059	-0.715456	-0.698599	-0.009055	0.698598	-0.715504	0.003873	-0.009185	-0.003555	0.999952	
4389														-0.095219	-0.050261	9.781076	-0.715457	-0.698598	-0.009043	0.698596	-0.715506	0.003895	-0.009191	-0.003531	0.999952	
4390														-0.081150	-0.035511	9.782277	-0.715458	-0.698597	-0.009060	0.698595	-0.715506	0.003901	-0.009208	-0.003538	0.999951	
4391														-0.096998	-0.035980	9.796291	-0.715460	-0.698595	-0.009062	0.698593	-0.715509	0.003907	-0.009214	-0.003535	0.999951	
4392														-0.081022	-0.048855	9.752420	-0.715446	-0.698609	-0.009064	0.698607	-0.715495	0.003884	-0.009199	-0.003554	0.999951	
4393														-0.111290	-0.049382	9.765828	-0.715478	-0.698576	-0.009067	0.698575	-0.715527	0.003874	-0.009193	-0.003562	0.999951	
4394														-0.097755	-0.020644	9.782256	-0.715479	-0.698575	-0.009069	0.698573	-0.715528	0.003895	-0.009210	-0.003548	0.999951	
4395														-0.098305	-0.049742	9.781048	-0.715497	-0.698557	-0.009056	0.698555	-0.715546	0.003886	-0.009194	-0.003546	0.999951	
4396														-0.098590	-0.049675	9.781046	-0.715499	-0.698556	-0.009043	0.698554	-0.715547	0.003862	-0.009168	-0.003554	0.999952	
4397														-0.084380	-0.035067	9.782251	-0.715484	-0.698570	-0.009061	0.698569	-0.715532	0.003869	-0.009186	-0.003561	0.999951	
4398														-0.099589	-0.049534	9.781037	-0.715486	-0.698569	-0.009047	0.698567	-0.715534	0.003875	-0.009181	-0.003548	0.999952	
4399														-0.085888	-0.035417	9.796868	-0.715489	-0.698566	-0.009035	0.698564	-0.715537	0.003851	-0.009155	-0.003556	0.999952	
4400														-0.086392	-0.035343	9.796864	-0.715460	-0.698595	-0.009052	0.698594	-0.715508	0.003874	-0.009183	-0.003553	0.999952	
4401														-0.100420	-0.048673	9.766400	-0.715490	-0.698565	-0.009055	0.698563	-0.715538	0.003864	-0.009178	-0.003561	0.999952	
4402														-0.086218	-0.033951	9.767608	-0.715478	-0.698577	-0.009042	0.698575	-0.715526	0.003871	-0.009174	-0.003547	0.999952	
4403														-0.101967	-0.034447	9.781614	-0.715493	-0.698561	-0.009059	0.698559	-0.715542	0.003861	-0.009180	-0.003566	0.999952	
4404														-0.087888	-0.049204	9.781622	-0.715492	-0.698562	-0.009077	0.698560	-0.715541	0.003852	-0.009186	-0.003585	0.999951	
4405														-0.102913	-0.034575	9.781604	-0.715492	-0.698562	-0.009064	0.698560	-0.715541	0.003828	-0.009160	-0.003593	0.999952	
4406														-0.089342	-0.049714	9.796238	-0.715479	-0.698575	-0.009066	0.698574	-0.715528	0.003850	-0.009177	-0.003579	0.999951	
4407														-0.089948	-0.034796	9.796834	-0.715498	-0.698556	-0.009054	0.698554	-0.715547	0.003871	-0.009183	-0.003555	0.999952	
4408														-0.104005	-0.033244	9.766965	-0.715514	-0.698540	-0.009056	0.698538	-0.715563	0.003907	-0.009210	-0.003531	0.999951	
4409														-0.105740	-0.034268	9.796207	-0.715501	-0.698553	-0.009043	0.698551	-0.715549	0.003884	-0.009184	-0.003538	0.999952	
4410														-0.092274	-0.049500	9.810844	-0.715473	-0.698582	-0.009076	0.698580	-0.715522	0.003906	-0.009223	-0.003546	0.999951	
4411														-0.106233	-0.033530	9.781572	-0.715507	-0.698547	-0.009048	0.698545	-0.715555	0.003895	-0.009195	-0.003533	0.999951	
4412														-0.077249	-0.033383	9.782810	-0.715497	-0.698557	-0.009035	0.698555	-0.715545	0.003888	-0.009181	-0.003530	0.999952	
4413														-0.092333	-0.033352	9.782185	-0.715500	-0.698554	-0.009053	0.698552	-0.715548	0.003878	-0.009187	-0.003549	0.999952	
4414														-0.092886	-0.033335	9.782180	-0.715501	-0.698553	-0.009056	0.698551	-0.715549	0.003884	-0.009193	-0.003546	0.999951	
4415														-0.107950	-0.047842	9.780956	-0.715487	-0.698568	-0.009043	0.698566	-0.715535	0.003876	-0.009178	-0.003543	0.999952	
4416														-0.108262	-0.033136	9.781551	-0.715472	-0.698583	-0.009030	0.698581	-0.715520	0.003853	-0.009153	-0.003551	0.999952	
4417														-0.108115	-0.047318	9.766324	-0.715490	-0.698564	-0.009078	0.698563	-0.715538	0.003843	-0.009180	-0.003592	0.999951	
4418														-0.094755	-0.047903	9.781564	-0.715505	-0.698549	-0.009065	0.698548	-0.715553	0.003865	-0.009186	-0.003567	0.999951	
4419														-0.097182	-0.020358	9.826624	-0.715506	-0.698547	-0.009082	0.698546	-0.715555	0.003840	-0.009182	-0.003597	0.999951	
4420														-0.095207	-0.032689	9.767529	-0.715509	-0.698544	-0.009100	0.698543	-0.715558	0.003846	-0.009199	-0.003605	0.999951	
4421														-0.081805	-0.033210	9.782773	-0.715496	-0.698558	-0.009103	0.698556	-0.715545	0.003853	-0.009205	-0.003602	0.999951	
4422														-0.096332	-0.047132	9.766921	-0.715498	-0.698555	-0.009105	0.698554	-0.715547	0.003859	-0.009211	-0.003599	0.999951	
4423														-0.111643	-0.017698	9.767482	-0.715515	-0.698538	-0.009108	0.698537	-0.715564	0.003880	-0.009228	-0.003586	0.999951	
4424														-0.084001	-0.047912	9.796787	-0.715487	-0.698567	-0.009080	0.698566	-0.715535	0.003873	-0.009203	-0.003572	0.999951	
4425														-0.099073	-0.033220	9.796751	-0.715507	-0.698547	-0.009098	0.698545	-0.715555	0.003863	-0.009208	-0.003592	0.999951	
4426														-0.098842	-0.047351	9.781527	-0.715538	-0.698514	-0.009100	0.698513	-0.715587	0.003837	-0.009192	-0.003611	0.999951	
4427														-0.084702	-0.047159	9.782154	-0.715539	-0.698514	-0.009088	0.698512	-0.715587	0.003875	-0.009210	-0.003575	0.999951	
4428														-0.100568	-0.032806	9.796737	-0.715526	-0.698527	-0.009075	0.698526	-0.715575	0.003882	-0.009205	-0.003562	0.999951	
4429														-0.086385	-0.047348	9.796769	-0.715526	-0.698527	-0.009093	0.698525	-0.715575	0.003873	-0.009212	-0.003580	0.999951	
4430														-0.100202	-0.046161	9.766887	-0.715527	-0.698526	-0.009080	0.698524	-0.715576	0.003864	-0.009197	-0.003578	0.999951	
4431														-0.085542	-0.015983	9.754085	-0.715530	-0.698523	-0.009068	0.698521	-0.715579	0.003901	-0.009214	-0.003543	0.999951	
4432														-0.087191	-0.060857	9.781541	-0.715532	-0.698521	-0.009070	0.698519	-0.715581	0.003892	-0.009209	-0.003551	0.999951	
4433														-0.102804	-0.046781	9.796121	-0.715532	-0.698522	-0.009042	0.698520	-0.715580	0.003868	-0.009172	-0.003548	0.999952	
4434														-0.102514	-0.045849	9.781496	-0.715506	-0.698548	-0.009014	0.698546	-0.715554	0.003906	-0.009179	-0.003502	0.999952	
4435														-0.101808	-0.029845	9.752841	-0.715523	-0.698531	-0.009032	0.698529	-0.715571	0.003881	-0.009174	-0.003532	0.999952	
4436														-0.088930	-0.045618	9.782124	-0.715511	-0.698543	-0.009034	0.698541	-0.715559	0.003903	-0.009191	-0.003518	0.999952	
4437														-0.088846	-0.044792	9.767497	-0.715514	-0.698540	-0.009022	0.698538	-0.715562	0.003909	-0.009186	-0.003505	0.999952	
4438														-0.119215	-0.030772	9.781432	-0.715514	-0.698540	-0.009023	0.698538	-0.715563	0.003885	-0.009171	-0.003523	0.999952	
4439														-0.090394	-0.030664	9.782706	-0.715517	-0.698537	-0.009026	0.698535	-0.715565	0.003891	-0.009177	-0.003521	0.999952	
4440														-0.092765	-0.061654	9.825381	-0.715504	-0.698550	-0.009044	0.698548	-0.715552	0.003898	-0.009194	-0.003529	0.999952	
4441														-0.090788	-0.044561	9.767480	-0.715491	-0.698564	-0.009031	0.698562	-0.715539	0.003890	-0.009180	-0.003526	0.999952	
4442														-0.105228	-0.044002	9.752212	-0.715510	-0.698544	-0.009050	0.698542	-0.715559	0.003880	-0.009186	-0.003546	0.999952	
4443														-0.091278	-0.029242	9.753442	-0.715499	-0.698555	-0.009053	0.698553	-0.715547	0.003901	-0.009203	-0.003532	0.999951	
4444														-0.079656	-0.031337	9.812571	-0.715502	-0.698553	-0.009025	0.698551	-0.715550	0.003893	-0.009177	-0.003519	0.999952	
4445														-0.092675	-0.044175	9.767464	-0.715504	-0.698551	-0.009042	0.698549	-0.715552	0.003883	-0.009183	-0.003538	0.999952	
4446														-0.109287	-0.030935	9.796650	-0.715491	-0.698563	-0.009075	0.698561	-0.715540	0.003875	-0.009200	-0.003567	0.999951	
4447														-0.094530	-0.045050	9.782074	-0.715463	-0.698591	-0.009093	0.698590	-0.715512	0.003867	-0.009207	-0.003586	0.999951	
4448														-0.080488	-0.030381	9.783309	-0.715494	-0.698560	-0.009096	0.698559	-0.715542	0.003857	-0.009203	-0.003594	0.999951	
4449														-0.096267	-0.030765	9.797280	-0.715466	-0.698588	-0.009068	0.698587	-0.715515	0.003895	-0.009210	-0.003548	0.999951	
4450														-0.096826	-0.030429	9.797275	-0.715470	-0.698585	-0.009071	0.698583	-0.715518	0.003901	-0.009216	-0.003546	0.999951	
4451														-0.081248	-0.043677	9.768085	-0.715472	-0.698583	-0.009058	0.698581	-0.715520	0.003892	-0.009201	-0.003543	0.999951	
4452														-0.095731	-0.028346	9.753402	-0.715474	-0.698581	-0.009046	0.698579	-0.715523	0.003898	-0.009196	-0.003530	0.999951	
4453														-0.083537	-0.029984	9.797914	-0.715477	-0.698578	-0.009064	0.698576	-0.715525	0.003889	-0.009202	-0.003549	0.999951	
4454														-0.083229	-0.058641	9.782104	-0.715463	-0.698592	-0.009066	0.698590	-0.715512	0.003896	-0.009209	-0.003546	0.999951	
4455														-0.083138	-0.043282	9.768070	-0.715451	-0.698604	-0.009053	0.698602	-0.715499	0.003887	-0.009193	-0.003544	0.999951	
4456														-0.097514	-0.042704	9.752793	-0.715484	-0.698570	-0.009056	0.698568	-0.715533	0.003877	-0.009188	-0.003553	0.999951	
4457														-0.114708	-0.029874	9.796591	-0.715456	-0.698599	-0.009059	0.698597	-0.715505	0.003884	-0.009195	-0.003549	0.999951	
4458														-0.099757	-0.043703	9.782028	-0.715473	-0.698582	-0.009046	0.698580	-0.715521	0.003875	-0.009179	-0.003547	0.999952	
4459														-0.086286	-0.029500	9.797891	-0.715460	-0.698595	-0.009048	0.698594	-0.715508	0.003866	-0.009175	-0.003555	0.999952	
4460														-0.085471	-0.042769	9.768053	-0.715464	-0.698591	-0.009052	0.698589	-0.715512	0.003903	-0.009203	-0.003531	0.999951	
4461														-0.086074	-0.042489	9.768048	-0.715481	-0.698574	-0.009039	0.698572	-0.715529	0.003909	-0.009198	-0.003517	0.999952	
4462														-0.101099	-0.042518	9.767388	-0.715468	-0.698587	-0.009041	0.698585	-0.715516	0.003885	-0.009183	-0.003536	0.999952	
4463														-0.102507	-0.013878	9.783184	-0.715486	-0.698568	-0.009059	0.698567	-0.715535	0.003890	-0.009200	-0.003545	0.999951	
4464														-0.087513	-0.042227	9.768037	-0.715488	-0.698566	-0.009031	0.698564	-0.715537	0.003912	-0.009195	-0.003510	0.999952	
4465														-0.103328	-0.028008	9.782586	-0.715476	-0.698579	-0.009019	0.698577	-0.715525	0.003903	-0.009180	-0.003508	0.999952	
4466														-0.088904	-0.042518	9.782653	-0.715478	-0.698577	-0.009021	0.698575	-0.715526	0.003879	-0.009164	-0.003526	0.999952	
4467														-0.103519	-0.027328	9.767955	-0.715465	-0.698590	-0.009024	0.698588	-0.715514	0.003901	-0.009182	-0.003513	0.999952	
4468														-0.103795	-0.056373	9.766773	-0.715468	-0.698587	-0.009012	0.698585	-0.715516	0.003907	-0.009177	-0.003500	0.999952	
4469														-0.090405	-0.041989	9.782642	-0.715471	-0.698585	-0.008999	0.698582	-0.715519	0.003913	-0.009173	-0.003487	0.999952	
4470														-0.105589	-0.041984	9.781974	-0.715475	-0.698580	-0.009018	0.698578	-0.715523	0.003919	-0.009190	-0.003496	0.999952	
4471														-0.077786	-0.027583	9.798505	-0.715479	-0.698576	-0.009021	0.698574	-0.715527	0.003940	-0.009207	-0.003483	0.999952	
4472														-0.105885	-0.055681	9.766755	-0.715481	-0.698574	-0.008993	0.698572	-0.715529	0.003931	-0.009181	-0.003470	0.999952	
4473														-0.092052	-0.026111	9.768590	-0.715469	-0.698586	-0.009011	0.698584	-0.715517	0.003953	-0.009209	-0.003467	0.999952	
4474														-0.092345	-0.040626	9.767999	-0.715502	-0.698553	-0.008983	0.698551	-0.715550	0.003928	-0.009172	-0.003465	0.999952	
4475														-0.092630	-0.040662	9.767996	-0.715489	-0.698566	-0.009001	0.698564	-0.715537	0.003904	-0.009168	-0.003495	0.999952	
4476														-0.094002	-0.026706	9.783199	-0.715477	-0.698579	-0.009019	0.698576	-0.715525	0.003910	-0.009185	-0.003503	0.999952	
4477														-0.093629	-0.055314	9.767398	-0.715479	-0.698576	-0.009022	0.698573	-0.715528	0.003916	-0.009191	-0.003501	0.999952	
4478														-0.094950	-0.041097	9.782602	-0.715481	-0.698574	-0.009009	0.698572	-0.715529	0.003923	-0.009187	-0.003487	0.999952	
4479														-0.108859	-0.039770	9.752685	-0.715499	-0.698556	-0.009012	0.698553	-0.715547	0.003959	-0.009214	-0.003463	0.999952	
4480														-0.096050	-0.040647	9.782594	-0.715516	-0.698538	-0.008999	0.698536	-0.715564	0.003934	-0.009188	-0.003472	0.999952	
4481														-0.110350	-0.054656	9.766711	-0.715490	-0.698565	-0.009002	0.698562	-0.715538	0.003972	-0.009216	-0.003447	0.999952	
4482														-0.097209	-0.040245	9.782584	-0.715523	-0.698531	-0.009006	0.698528	-0.715571	0.003976	-0.009222	-0.003446	0.999952	
4483														-0.112284	-0.040165	9.781907	-0.715526	-0.698529	-0.008978	0.698526	-0.715574	0.003982	-0.009206	-0.003422	0.999952	
4484														-0.098717	-0.040434	9.797198	-0.715399	-0.698656	-0.009152	0.698654	-0.715449	0.003978	-0.009327	-0.003548	0.999950	
4485														-0.099167	-0.040309	9.797194	-0.715406	-0.698650	-0.009140	0.698647	-0.715455	0.003984	-0.009323	-0.003535	0.999950	
4486														-0.099509	-0.040081	9.797192	-0.715407	-0.698649	-0.009112	0.698646	-0.715456	0.003976	-0.009297	-0.003522	0.999951	
4487														-0.083159	-0.037873	9.754002	-0.715424	-0.698632	-0.009085	0.698629	-0.715473	0.003982	-0.009282	-0.003499	0.999951	
4488														-0.098292	-0.037748	9.753322	-0.715397	-0.698659	-0.009088	0.698657	-0.715446	0.004004	-0.009300	-0.003485	0.999951	
