// Start Time: Unknown: 
// Update Rate: 60.0Hz 
// Filter Profile: human (46.1) 
// Firmware Version: 4.6.0
PacketCounter	SampleTimeFine	Year	Month	Day	Second	UTC_Nano	UTC_Year	UTC_Month	UTC_Day	UTC_Hour	UTC_Minute	UTC_Second	UTC_Valid	Acc_X	Acc_Y	Acc_Z	Mat[1][1]	Mat[2][1]	Mat[3][1]	Mat[1][2]	Mat[2][2]	Mat[3][2]	Mat[1][3]	Mat[2][3]	Mat[3][3] 
3598														-0.094679	0.080374	9.800123	-0.971267	0.237612	-0.013436	-0.237696	-0.971327	0.005036	-0.011854	0.008085	0.999897	
3599														-0.123901	0.080524	9.800278	-0.971263	0.237631	-0.013433	-0.237715	-0.971322	0.005053	-0.011847	0.008101	0.999897	
3600														-0.123947	0.065743	9.756478	-0.971273	0.237591	-0.013429	-0.237675	-0.971332	0.005070	-0.011839	0.008116	0.999897	
3601														-0.138329	0.080863	9.785708	-0.971264	0.237625	-0.013422	-0.237709	-0.971323	0.005072	-0.011832	0.008117	0.999897	
3602														-0.108958	0.081165	9.785551	-0.971259	0.237645	-0.013433	-0.237729	-0.971318	0.005085	-0.011840	0.008133	0.999897	
3603														-0.123603	0.081421	9.800274	-0.971265	0.237620	-0.013452	-0.237704	-0.971324	0.005066	-0.011863	0.008118	0.999897	
3604														-0.109111	0.081243	9.770900	-0.971260	0.237640	-0.013446	-0.237724	-0.971319	0.005068	-0.011856	0.008119	0.999897	
3605														-0.108843	0.096330	9.800051	-0.971259	0.237644	-0.013439	-0.237729	-0.971318	0.005070	-0.011848	0.008119	0.999897	
3606														-0.138184	0.081469	9.771058	-0.971254	0.237664	-0.013447	-0.237748	-0.971314	0.005069	-0.011856	0.008120	0.999897	
3607														-0.108696	0.067268	9.785692	-0.971246	0.237698	-0.013443	-0.237783	-0.971305	0.005086	-0.011849	0.008136	0.999897	
3608														-0.108622	0.067492	9.785691	-0.971252	0.237672	-0.013452	-0.237757	-0.971311	0.005085	-0.011857	0.008137	0.999897	
3609														-0.123304	0.082547	9.800269	-0.971244	0.237706	-0.013482	-0.237791	-0.971303	0.005109	-0.011881	0.008168	0.999896	
3610														-0.108585	0.082739	9.785542	-0.971243	0.237711	-0.013445	-0.237796	-0.971302	0.005118	-0.011843	0.008168	0.999897	
3611														-0.123010	0.082774	9.785623	-0.971253	0.237671	-0.013450	-0.237756	-0.971312	0.005102	-0.011851	0.008153	0.999897	
3612														-0.108367	0.082737	9.770896	-0.971248	0.237690	-0.013442	-0.237775	-0.971307	0.005104	-0.011844	0.008153	0.999897	
3613														-0.108180	0.068165	9.771044	-0.971247	0.237695	-0.013432	-0.237780	-0.971306	0.005090	-0.011837	0.008138	0.999897	
3614														-0.108189	0.071863	9.771007	-0.971247	0.237693	-0.013445	-0.237777	-0.971306	0.005080	-0.011852	0.008131	0.999897	
3615														-0.108199	0.075562	9.770970	-0.971248	0.237690	-0.013459	-0.237775	-0.971307	0.005069	-0.011868	0.008124	0.999897	
3616														-0.108135	0.083478	9.800188	-0.971247	0.237694	-0.013474	-0.237779	-0.971306	0.005097	-0.011876	0.008155	0.999896	
3617														-0.108102	0.068981	9.785687	-0.971246	0.237698	-0.013467	-0.237784	-0.971305	0.005099	-0.011869	0.008155	0.999896	
3618														-0.122675	0.069169	9.785766	-0.971241	0.237717	-0.013479	-0.237803	-0.971300	0.005112	-0.011877	0.008171	0.999896	
3619														-0.122718	0.083743	9.770970	-0.971247	0.237692	-0.013465	-0.237777	-0.971306	0.005085	-0.011870	0.008140	0.999896	
3620														-0.107799	0.069426	9.800334	-0.971246	0.237697	-0.013473	-0.237782	-0.971305	0.005084	-0.011878	0.008141	0.999896	
3621														-0.107729	0.069429	9.785687	-0.971241	0.237717	-0.013451	-0.237802	-0.971300	0.005090	-0.011855	0.008142	0.999897	
3622														-0.107702	0.054561	9.756542	-0.971236	0.237737	-0.013456	-0.237822	-0.971296	0.005074	-0.011864	0.008128	0.999897	
3623														-0.107847	0.084079	9.770890	-0.971239	0.237726	-0.013494	-0.237811	-0.971298	0.005065	-0.011902	0.008129	0.999896	
3624														-0.107996	0.084227	9.770888	-0.971237	0.237730	-0.013502	-0.237815	-0.971297	0.005064	-0.011910	0.008130	0.999896	
3625														-0.122260	0.055420	9.800560	-0.971226	0.237779	-0.013484	-0.237864	-0.971285	0.005085	-0.011888	0.008146	0.999896	
3626														-0.107468	0.055687	9.785833	-0.971217	0.237812	-0.013485	-0.237898	-0.971277	0.005117	-0.011881	0.008178	0.999896	
3627														-0.092942	0.070224	9.756308	-0.971209	0.237846	-0.013486	-0.237931	-0.971269	0.005086	-0.011889	0.008149	0.999896	
3628														-0.107306	0.085511	9.814828	-0.971212	0.237836	-0.013498	-0.237921	-0.971271	0.005100	-0.011897	0.008164	0.999896	
3629														-0.136533	0.085440	9.800342	-0.971207	0.237856	-0.013472	-0.237941	-0.971266	0.005090	-0.011874	0.008149	0.999896	
3630														-0.107176	0.055916	9.771187	-0.971207	0.237855	-0.013472	-0.237940	-0.971266	0.005090	-0.011874	0.008149	0.999896	
3631														-0.121773	0.070905	9.800412	-0.971202	0.237874	-0.013495	-0.237960	-0.971262	0.005085	-0.011897	0.008150	0.999896	
3632														-0.121774	0.071129	9.800410	-0.971205	0.237864	-0.013492	-0.237950	-0.971264	0.005102	-0.011890	0.008166	0.999896	
3633														-0.121742	0.085849	9.785612	-0.971204	0.237869	-0.013485	-0.237954	-0.971263	0.005105	-0.011883	0.008167	0.999896	
3634														-0.107138	0.071235	9.771033	-0.971202	0.237874	-0.013508	-0.237959	-0.971262	0.005100	-0.011906	0.008168	0.999896	
3635														-0.107138	0.071235	9.771033	-0.971201	0.237879	-0.013494	-0.237964	-0.971261	0.005073	-0.011899	0.008138	0.999896	
3636														-0.106665	0.071839	9.829625	-0.971204	0.237869	-0.013487	-0.237954	-0.971263	0.005075	-0.011892	0.008138	0.999896	
3637														-0.106834	0.071534	9.785682	-0.971203	0.237873	-0.013495	-0.237958	-0.971262	0.005074	-0.011900	0.008139	0.999896	
3638														-0.092186	0.071569	9.785601	-0.971205	0.237863	-0.013495	-0.237948	-0.971265	0.005043	-0.011908	0.008108	0.999896	
3639														-0.106834	0.071532	9.785682	-0.971204	0.237868	-0.013503	-0.237952	-0.971264	0.005041	-0.011916	0.008109	0.999896	
3640														-0.106878	0.086250	9.770882	-0.971206	0.237857	-0.013499	-0.237942	-0.971266	0.005058	-0.011909	0.008124	0.999896	
3641														-0.106530	0.072130	9.800329	-0.971205	0.237862	-0.013492	-0.237947	-0.971265	0.005060	-0.011901	0.008125	0.999896	
3642														-0.120998	0.057370	9.785917	-0.971201	0.237882	-0.013467	-0.237966	-0.971260	0.005051	-0.011879	0.008110	0.999897	
3643														-0.106349	0.086703	9.785532	-0.971199	0.237886	-0.013487	-0.237971	-0.971259	0.005030	-0.011902	0.008095	0.999896	
3644														-0.106044	0.057634	9.800485	-0.971271	0.237610	-0.013183	-0.237692	-0.971327	0.005087	-0.011597	0.008074	0.999900	
3645														-0.120505	0.072318	9.800417	-0.971274	0.237596	-0.013187	-0.237679	-0.971331	0.005070	-0.011604	0.008059	0.999900	
3646														-0.105985	0.086696	9.770888	-0.971275	0.237596	-0.013176	-0.237679	-0.971331	0.005058	-0.011596	0.008045	0.999900	
3647														-0.105446	0.057557	9.800492	-0.971274	0.237601	-0.013128	-0.237683	-0.971330	0.005024	-0.011558	0.007999	0.999901	
3648														-0.105435	0.071598	9.756402	-0.971276	0.237592	-0.013117	-0.237674	-0.971332	0.005011	-0.011550	0.007985	0.999901	
3649														-0.119701	0.071787	9.771136	-0.971277	0.237591	-0.013080	-0.237672	-0.971332	0.005021	-0.011512	0.007985	0.999902	
3650														-0.090134	0.057365	9.785768	-0.971273	0.237606	-0.013095	-0.237687	-0.971329	0.004986	-0.011535	0.007956	0.999902	
3651														-0.119403	0.071939	9.771139	-0.971266	0.237639	-0.013066	-0.237720	-0.971321	0.005025	-0.011497	0.007987	0.999902	
3652														-0.118860	0.072471	9.800436	-0.971262	0.237654	-0.013040	-0.237735	-0.971317	0.005016	-0.011474	0.007972	0.999902	
3653														-0.104110	0.087151	9.785552	-0.971262	0.237656	-0.013037	-0.237737	-0.971317	0.005033	-0.011467	0.007988	0.999902	
3654														-0.089447	0.072383	9.756325	-0.971261	0.237661	-0.013026	-0.237742	-0.971315	0.005021	-0.011459	0.007973	0.999903	
3655														-0.133206	0.086996	9.756432	-0.971263	0.237652	-0.013003	-0.237732	-0.971318	0.005027	-0.011436	0.007974	0.999903	
3656														-0.103368	0.073410	9.829648	-0.971266	0.237638	-0.013029	-0.237719	-0.971321	0.005036	-0.011459	0.007989	0.999902	
3657														-0.103698	0.058065	9.741918	-0.971258	0.237674	-0.012993	-0.237755	-0.971312	0.005046	-0.011421	0.007990	0.999903	
3658														-0.117988	0.073211	9.771146	-0.971253	0.237695	-0.013004	-0.237776	-0.971307	0.005059	-0.011428	0.008006	0.999903	
3659														-0.117642	0.073904	9.829735	-0.971257	0.237679	-0.013004	-0.237760	-0.971311	0.005028	-0.011436	0.007976	0.999903	
3660														-0.117950	0.088008	9.770992	-0.971252	0.237699	-0.013000	-0.237779	-0.971306	0.005045	-0.011428	0.007992	0.999903	
3661														-0.117813	0.087929	9.756346	-0.971253	0.237697	-0.012971	-0.237777	-0.971307	0.005021	-0.011405	0.007961	0.999903	
3662														-0.102768	0.059055	9.785864	-0.971248	0.237714	-0.012982	-0.237795	-0.971302	0.005035	-0.011413	0.007977	0.999903	
3663														-0.131826	0.088661	9.800378	-0.971244	0.237735	-0.012945	-0.237815	-0.971297	0.005045	-0.011374	0.007978	0.999903	
3664														-0.102432	0.074154	9.785710	-0.971245	0.237728	-0.012971	-0.237809	-0.971299	0.005055	-0.011397	0.007994	0.999903	
3665														-0.117355	0.059464	9.771302	-0.971238	0.237754	-0.013005	-0.237834	-0.971293	0.005032	-0.011435	0.007980	0.999903	
3666														-0.102868	0.088639	9.756256	-0.971240	0.237747	-0.012979	-0.237827	-0.971294	0.005023	-0.011412	0.007965	0.999903	
3667														-0.087808	0.089215	9.800111	-0.971240	0.237748	-0.012986	-0.237828	-0.971294	0.005021	-0.011420	0.007966	0.999903	
3668														-0.116843	0.074647	9.800444	-0.971234	0.237775	-0.012950	-0.237855	-0.971288	0.005031	-0.011382	0.007967	0.999903	
3669														-0.102176	0.074208	9.741769	-0.971237	0.237762	-0.012928	-0.237842	-0.971291	0.005037	-0.011359	0.007967	0.999904	
3670														-0.101598	0.074906	9.800360	-0.971240	0.237753	-0.012917	-0.237833	-0.971293	0.005024	-0.011352	0.007952	0.999904	
3671														-0.116007	0.075101	9.815098	-0.971239	0.237756	-0.012910	-0.237835	-0.971292	0.005027	-0.011344	0.007952	0.999904	
3672														-0.116186	0.075010	9.785802	-0.971242	0.237745	-0.012935	-0.237825	-0.971295	0.005037	-0.011366	0.007968	0.999904	
3673														-0.116327	0.060272	9.756662	-0.971242	0.237745	-0.012927	-0.237825	-0.971295	0.005039	-0.011358	0.007968	0.999904	
3674														-0.116247	0.075540	9.800444	-0.971240	0.237749	-0.012979	-0.237829	-0.971294	0.005027	-0.011412	0.007969	0.999903	
3675														-0.116447	0.090257	9.785637	-0.971228	0.237800	-0.012961	-0.237881	-0.971281	0.005048	-0.011389	0.007986	0.999903	
3676														-0.116336	0.075836	9.785794	-0.971229	0.237791	-0.012983	-0.237872	-0.971283	0.005043	-0.011411	0.007986	0.999903	
3677														-0.116336	0.075984	9.785792	-0.971228	0.237798	-0.012976	-0.237879	-0.971282	0.005046	-0.011403	0.007987	0.999903	
3678														-0.116439	0.075892	9.756497	-0.971223	0.237818	-0.012987	-0.237899	-0.971277	0.005059	-0.011411	0.008003	0.999903	
3679														-0.086876	0.076663	9.800258	-0.971225	0.237808	-0.012994	-0.237888	-0.971279	0.005058	-0.011418	0.008004	0.999903	
3680														-0.116151	0.062010	9.785948	-0.971221	0.237825	-0.012991	-0.237906	-0.971275	0.005075	-0.011410	0.008020	0.999903	
3681														-0.116255	0.061989	9.756652	-0.971224	0.237814	-0.013002	-0.237896	-0.971277	0.005089	-0.011418	0.008036	0.999903	
3682														-0.116151	0.062384	9.785946	-0.971216	0.237846	-0.013017	-0.237927	-0.971270	0.005054	-0.011440	0.008006	0.999903	
3683														-0.101539	0.077144	9.785696	-0.971214	0.237851	-0.013013	-0.237933	-0.971268	0.005072	-0.011433	0.008022	0.999902	
3684														-0.116404	0.062439	9.756648	-0.971212	0.237857	-0.013054	-0.237939	-0.971267	0.005078	-0.011471	0.008038	0.999902	
3685														-0.101556	0.048212	9.771365	-0.971208	0.237879	-0.013018	-0.237960	-0.971262	0.005088	-0.011433	0.008039	0.999902	
3686														-0.130574	0.092469	9.785712	-0.971211	0.237866	-0.013014	-0.237948	-0.971265	0.005104	-0.011426	0.008054	0.999902	
3687														-0.101257	0.077955	9.771045	-0.971206	0.237884	-0.013021	-0.237966	-0.971260	0.005103	-0.011433	0.008055	0.999902	
3688														-0.115689	0.063745	9.800590	-0.971205	0.237890	-0.013029	-0.237972	-0.971259	0.005102	-0.011440	0.008056	0.999902	
3689														-0.130352	0.063701	9.786032	-0.971197	0.237921	-0.013021	-0.238003	-0.971251	0.005104	-0.011432	0.008057	0.999902	
3690														-0.115480	0.063809	9.785944	-0.971207	0.237884	-0.012995	-0.237966	-0.971260	0.005096	-0.011410	0.008042	0.999903	
3691														-0.115241	0.064192	9.800592	-0.971206	0.237884	-0.013010	-0.237966	-0.971260	0.005124	-0.011417	0.008072	0.999902	
3692														-0.100810	0.078774	9.771043	-0.971206	0.237885	-0.013010	-0.237967	-0.971260	0.005124	-0.011417	0.008072	0.999902	
3693														-0.115570	0.093535	9.770969	-0.971205	0.237889	-0.013036	-0.237971	-0.971259	0.005133	-0.011441	0.008088	0.999902	
3694														-0.115459	0.079111	9.771130	-0.971207	0.237881	-0.013014	-0.237963	-0.971261	0.005139	-0.011418	0.008088	0.999902	
3695														-0.115219	0.079350	9.785779	-0.971199	0.237914	-0.013018	-0.237996	-0.971253	0.005123	-0.011425	0.008074	0.999902	
3696														-0.085982	0.079658	9.800242	-0.971205	0.237887	-0.013055	-0.237969	-0.971259	0.005114	-0.011463	0.008074	0.999902	
3697														-0.115333	0.064997	9.785938	-0.971208	0.237877	-0.013036	-0.237959	-0.971262	0.005135	-0.011440	0.008090	0.999902	
3698														-0.100557	0.080068	9.800330	-0.971206	0.237882	-0.013059	-0.237964	-0.971260	0.005130	-0.011463	0.008090	0.999902	
3699														-0.115311	0.079931	9.771126	-0.971195	0.237929	-0.013040	-0.238011	-0.971249	0.005151	-0.011440	0.008107	0.999902	
3700														-0.115126	0.065434	9.771290	-0.971201	0.237906	-0.013044	-0.237988	-0.971254	0.005135	-0.011448	0.008092	0.999902	
3701														-0.115033	0.095042	9.785608	-0.971196	0.237924	-0.013041	-0.238006	-0.971250	0.005152	-0.011440	0.008108	0.999902	
3702														-0.129609	0.065935	9.786027	-0.971199	0.237912	-0.013063	-0.237995	-0.971253	0.005147	-0.011463	0.008108	0.999901	
3703														-0.100349	0.080802	9.785679	-0.971198	0.237917	-0.013056	-0.238000	-0.971252	0.005150	-0.011455	0.008109	0.999902	
3704														-0.129535	0.066233	9.786026	-0.971196	0.237922	-0.013063	-0.238005	-0.971250	0.005148	-0.011463	0.008109	0.999901	
3705														-0.100181	0.066361	9.771196	-0.971199	0.237911	-0.013045	-0.237994	-0.971253	0.005169	-0.011440	0.008125	0.999902	
3706														-0.114442	0.081770	9.815063	-0.971195	0.237929	-0.013056	-0.238012	-0.971248	0.005183	-0.011447	0.008141	0.999901	
3707														-0.099979	0.052327	9.786008	-0.971197	0.237917	-0.013074	-0.238000	-0.971251	0.005163	-0.011469	0.008126	0.999901	
3708														-0.114883	0.081327	9.756472	-0.971196	0.237922	-0.013066	-0.238005	-0.971250	0.005165	-0.011462	0.008126	0.999901	
3709														-0.129237	0.067050	9.786025	-0.971203	0.237897	-0.013070	-0.237979	-0.971257	0.005149	-0.011469	0.008111	0.999901	
3710														-0.114515	0.067233	9.785933	-0.971202	0.237901	-0.013066	-0.237984	-0.971255	0.005166	-0.011461	0.008127	0.999901	
3711														-0.129235	0.081658	9.756564	-0.971204	0.237890	-0.013055	-0.237972	-0.971258	0.005154	-0.011454	0.008112	0.999901	
3712														-0.099589	0.082304	9.800322	-0.971211	0.237865	-0.013063	-0.237947	-0.971264	0.005152	-0.011462	0.008112	0.999901	
3713														-0.114439	0.081914	9.756472	-0.971203	0.237896	-0.013055	-0.237979	-0.971257	0.005154	-0.011454	0.008112	0.999901	
3714														-0.099512	0.067622	9.771195	-0.971202	0.237901	-0.013048	-0.237984	-0.971255	0.005156	-0.011446	0.008113	0.999902	
3715														-0.128641	0.067791	9.786027	-0.971204	0.237891	-0.013052	-0.237973	-0.971258	0.005140	-0.011454	0.008098	0.999902	
3716														-0.128826	0.067529	9.756733	-0.971199	0.237910	-0.013059	-0.237992	-0.971253	0.005139	-0.011461	0.008099	0.999902	
3717														-0.099383	0.082735	9.785672	-0.971202	0.237900	-0.013067	-0.237982	-0.971256	0.005138	-0.011469	0.008100	0.999901	
3718														-0.114086	0.067957	9.771285	-0.971197	0.237918	-0.013071	-0.238000	-0.971252	0.005121	-0.011476	0.008085	0.999901	
3719														-0.113919	0.068275	9.785932	-0.971200	0.237907	-0.013067	-0.237989	-0.971254	0.005139	-0.011469	0.008101	0.999901	
3720														-0.099159	0.054039	9.786007	-0.971192	0.237940	-0.013082	-0.238023	-0.971246	0.005167	-0.011476	0.008132	0.999901	
3721														-0.113863	0.068779	9.771282	-0.971198	0.237914	-0.013074	-0.237996	-0.971252	0.005169	-0.011468	0.008132	0.999901	
3722														-0.113622	0.068944	9.785931	-0.971205	0.237889	-0.013059	-0.237972	-0.971259	0.005142	-0.011461	0.008102	0.999902	
3723														-0.098825	0.069055	9.785839	-0.971200	0.237907	-0.013056	-0.237990	-0.971254	0.005159	-0.011453	0.008117	0.999901	
3724														-0.098712	0.054634	9.786008	-0.971195	0.237926	-0.013063	-0.238009	-0.971249	0.005158	-0.011461	0.008118	0.999901	
3725														-0.127878	0.069380	9.800673	-0.971191	0.237946	-0.013049	-0.238028	-0.971245	0.005130	-0.011453	0.008088	0.999902	
3726														-0.098619	0.069113	9.771193	-0.971194	0.237934	-0.013041	-0.238016	-0.971248	0.005132	-0.011445	0.008088	0.999902	
3727														-0.113250	0.083625	9.756471	-0.971200	0.237909	-0.013030	-0.237991	-0.971254	0.005120	-0.011437	0.008073	0.999902	
3728														-0.113044	0.069223	9.771289	-0.971192	0.237943	-0.013038	-0.238025	-0.971246	0.005118	-0.011445	0.008074	0.999902	
3729														-0.112913	0.084192	9.785765	-0.971191	0.237947	-0.013030	-0.238029	-0.971245	0.005121	-0.011437	0.008075	0.999902	
3730														-0.112689	0.055047	9.786107	-0.971190	0.237952	-0.013023	-0.238033	-0.971243	0.005123	-0.011430	0.008075	0.999902	
3731														-0.127412	0.084456	9.785859	-0.971185	0.237970	-0.013046	-0.238052	-0.971239	0.005118	-0.011453	0.008076	0.999902	
3732														-0.098211	0.084581	9.771021	-0.971188	0.237959	-0.013042	-0.238041	-0.971242	0.005134	-0.011445	0.008091	0.999902	
3733														-0.112747	0.070119	9.771286	-0.971190	0.237948	-0.013050	-0.238030	-0.971244	0.005133	-0.011453	0.008091	0.999902	
3734														-0.112842	0.069945	9.756639	-0.971193	0.237937	-0.013050	-0.238019	-0.971247	0.005102	-0.011461	0.008061	0.999902	
3735														-0.112653	0.070362	9.785932	-0.971192	0.237941	-0.013061	-0.238023	-0.971246	0.005115	-0.011468	0.008076	0.999902	
3736														-0.112555	0.070442	9.789595	-0.971193	0.237938	-0.013048	-0.238019	-0.971247	0.005095	-0.011460	0.008054	0.999902	
3737														-0.112457	0.070522	9.793257	-0.971194	0.237935	-0.013035	-0.238016	-0.971248	0.005075	-0.011453	0.008032	0.999902	
3738														-0.112393	0.085158	9.785763	-0.971189	0.237953	-0.013046	-0.238034	-0.971243	0.005088	-0.011460	0.008047	0.999902	
3739														-0.112339	0.085211	9.771116	-0.971188	0.237957	-0.013024	-0.238039	-0.971242	0.005094	-0.011437	0.008048	0.999902	
3740														-0.111791	0.071232	9.815230	-0.971184	0.237976	-0.013017	-0.238057	-0.971238	0.005096	-0.011430	0.008048	0.999902	
3741														-0.097184	0.070998	9.785841	-0.971186	0.237966	-0.013006	-0.238047	-0.971240	0.005084	-0.011422	0.008033	0.999902	
3742														-0.111796	0.085607	9.785766	-0.971189	0.237955	-0.013009	-0.238036	-0.971243	0.005068	-0.011429	0.008018	0.999903	
3743														-0.111796	0.085681	9.785765	-0.971184	0.237974	-0.013017	-0.238055	-0.971238	0.005067	-0.011437	0.008019	0.999902	
3744														-0.111817	0.085735	9.771117	-0.971180	0.237993	-0.013014	-0.238074	-0.971234	0.005084	-0.011429	0.008035	0.999902	
3745														-0.111460	0.071408	9.785938	-0.971190	0.237953	-0.012988	-0.238034	-0.971244	0.005075	-0.011406	0.008020	0.999903	
3746														-0.125846	0.056638	9.786211	-0.971211	0.237869	-0.012972	-0.237949	-0.971264	0.005047	-0.011399	0.007989	0.999903	
3747														-0.228034	-0.046539	9.758812	-0.971384	0.237161	-0.012949	-0.237241	-0.971438	0.005066	-0.011378	0.007993	0.999903	
3748														0.035072	0.189187	9.783582	-0.971848	0.235253	-0.012944	-0.235333	-0.971902	0.005062	-0.011389	0.007966	0.999903	
3749														-0.302631	0.245780	9.785131	-0.972539	0.232379	-0.012954	-0.232459	-0.972593	0.005081	-0.011418	0.007953	0.999903	
3750														-0.493125	0.139187	9.758327	-0.974290	0.224926	-0.012929	-0.225006	-0.974344	0.005077	-0.011456	0.007855	0.999904	
3751														0.154237	-0.056175	9.800401	-0.975566	0.219320	-0.013032	-0.219401	-0.975621	0.005097	-0.011596	0.007832	0.999902	
3752														-0.039003	0.057024	9.770977	-0.976257	0.216228	-0.012982	-0.216307	-0.976312	0.005067	-0.011578	0.007755	0.999903	
3753														-0.038433	0.042914	9.800445	-0.976771	0.213891	-0.013020	-0.213972	-0.976826	0.005130	-0.011621	0.007797	0.999902	
3754														-0.009665	0.043869	9.785601	-0.977033	0.212688	-0.013076	-0.212768	-0.977089	0.005098	-0.011692	0.007763	0.999902	
3755														-0.324368	0.268923	9.770174	-0.977304	0.211439	-0.013071	-0.211519	-0.977361	0.005080	-0.011701	0.007729	0.999902	
3756														-1.217868	1.071661	9.795257	-0.979326	0.201874	-0.012962	-0.201953	-0.979382	0.005042	-0.011677	0.007556	0.999903	
3757														-1.392896	1.216223	9.720942	-0.984437	0.175256	-0.012964	-0.175334	-0.984496	0.005141	-0.011862	0.007334	0.999903	
3758														-0.628951	0.564297	9.782578	-0.990505	0.136871	-0.012869	-0.136947	-0.990565	0.005225	-0.012033	0.006938	0.999904	
3759														0.704918	-0.129410	9.842655	-0.995151	0.097521	-0.012839	-0.097597	-0.995211	0.005433	-0.012247	0.006659	0.999903	
3760														1.150796	-0.535904	9.802305	-0.997835	0.064494	-0.012844	-0.064568	-0.997899	0.005378	-0.012470	0.006195	0.999903	
3761														1.296769	-1.665407	9.773191	-0.998155	0.059340	-0.012856	-0.059415	-0.998218	0.005481	-0.012508	0.006235	0.999902	
3762														-0.137391	0.067950	9.771205	-0.998154	0.059356	-0.012859	-0.059431	-0.998217	0.005480	-0.012511	0.006234	0.999902	
3763														-0.123004	0.071005	9.800396	-0.998153	0.059359	-0.012892	-0.059434	-0.998217	0.005465	-0.012544	0.006221	0.999902	
3764														-0.120605	0.056122	9.771282	-0.998153	0.059375	-0.012882	-0.059449	-0.998216	0.005450	-0.012535	0.006206	0.999902	
3765														-0.960680	0.077366	9.789279	-0.998150	0.059350	-0.013177	-0.059421	-0.998220	0.005022	-0.012856	0.005795	0.999901	
3766														-0.319508	0.059512	9.771965	-0.998151	0.059307	-0.013282	-0.059375	-0.998224	0.004821	-0.012972	0.005601	0.999900	
3767														0.816298	0.031376	9.767730	-0.998168	0.058984	-0.013460	-0.059053	-0.998243	0.004780	-0.013154	0.005566	0.999898	
3768														-0.155473	0.045079	9.800712	-0.998198	0.058468	-0.013470	-0.058537	-0.998274	0.004813	-0.013165	0.005592	0.999898	
3769														-0.126451	0.051286	9.815177	-0.998257	0.057459	-0.013434	-0.057529	-0.998332	0.004918	-0.013129	0.005682	0.999898	
3770														-0.230319	0.046063	9.757046	-0.998333	0.056117	-0.013498	-0.056187	-0.998409	0.004844	-0.013204	0.005595	0.999897	
3771														-0.052595	0.049826	9.770953	-0.998430	0.054346	-0.013532	-0.054416	-0.998506	0.004869	-0.013247	0.005598	0.999897	
3772														-0.061057	0.093428	9.799717	-0.998527	0.052544	-0.013555	-0.052614	-0.998603	0.004846	-0.013281	0.005552	0.999896	
3773														-0.138903	0.107579	9.770520	-0.998616	0.050819	-0.013562	-0.050888	-0.998693	0.004796	-0.013300	0.005479	0.999897	
3774														-0.104883	0.083802	9.770695	-0.998738	0.048359	-0.013593	-0.048427	-0.998815	0.004739	-0.013348	0.005392	0.999896	
3775														-0.191126	0.066895	9.800526	-0.998866	0.045637	-0.013560	-0.045705	-0.998944	0.004785	-0.013328	0.005400	0.999897	
3776														-0.208503	0.077442	9.771150	-0.999004	0.042517	-0.013571	-0.042584	-0.999082	0.004716	-0.013358	0.005290	0.999897	
3777														-0.128827	0.122904	9.755609	-0.999130	0.039410	-0.013627	-0.039478	-0.999209	0.004748	-0.013429	0.005282	0.999896	
3778														-0.153215	0.237897	9.768837	-0.999259	0.035995	-0.013619	-0.036064	-0.999338	0.004788	-0.013438	0.005275	0.999896	
3779														-0.057847	0.138221	9.769798	-0.999382	0.032428	-0.013588	-0.032495	-0.999460	0.004784	-0.013426	0.005223	0.999896	
3780														-0.065215	0.102939	9.773949	-0.999494	0.028528	-0.013551	-0.028595	-0.999572	0.004797	-0.013408	0.005182	0.999897	
3781														-0.072582	0.067656	9.778099	-0.999605	0.024628	-0.013514	-0.024695	-0.999683	0.004810	-0.013391	0.005142	0.999897	
3782														-0.137504	-0.044333	9.772481	-0.999698	0.020518	-0.013520	-0.020586	-0.999776	0.004877	-0.013416	0.005154	0.999897	
3783														-0.055834	0.124288	9.755315	-0.999770	0.016622	-0.013551	-0.016690	-0.999849	0.004882	-0.013468	0.005107	0.999896	
3784														-0.223243	0.130836	9.755782	-0.999827	0.012756	-0.013541	-0.012824	-0.999906	0.004937	-0.013477	0.005109	0.999896	
3785														-0.184363	0.095251	9.770786	-0.999871	0.008780	-0.013420	-0.008849	-0.999948	0.005083	-0.013375	0.005201	0.999897	
3786														-0.457233	0.105769	9.786237	-0.999902	0.004280	-0.013359	-0.004351	-0.999977	0.005249	-0.013336	0.005307	0.999897	
3787														0.071397	-0.021338	9.800846	-0.999910	-0.001157	-0.013399	0.001086	-0.999985	0.005294	-0.013405	0.005279	0.999896	
3788														-0.003231	-0.085162	9.787329	-0.999891	-0.006180	-0.013415	0.006110	-0.999968	0.005236	-0.013447	0.005154	0.999896	
3789														-0.142792	0.105318	9.770489	-0.999848	-0.011082	-0.013436	0.011012	-0.999926	0.005223	-0.013493	0.005075	0.999896	
3790														-0.257183	0.135004	9.785077	-0.999774	-0.016490	-0.013396	0.016423	-0.999852	0.005123	-0.013479	0.004902	0.999897	
3791														-0.264787	0.162710	9.799365	-0.999678	-0.021581	-0.013314	0.021512	-0.999755	0.005306	-0.013425	0.005018	0.999897	
3792														-0.226937	0.019854	9.757269	-0.999546	-0.027008	-0.013381	0.026940	-0.999624	0.005178	-0.013516	0.004815	0.999897	
3793														-0.188645	-0.061250	9.787586	-0.999391	-0.032286	-0.013220	0.032217	-0.999467	0.005353	-0.013386	0.004924	0.999898	
3794														0.018950	-0.201091	9.788915	-0.999240	-0.036606	-0.013365	0.036540	-0.999319	0.005162	-0.013544	0.004670	0.999897	
3795														0.059760	0.128844	9.740231	-0.999032	-0.041882	-0.013444	0.041818	-0.999113	0.004991	-0.013642	0.004424	0.999897	
3796														-0.070876	-0.000570	9.786325	-0.998776	-0.047579	-0.013485	0.047514	-0.998858	0.005068	-0.013711	0.004421	0.999896	
3797														-0.181576	0.012220	9.771800	-0.998589	-0.051379	-0.013413	0.051314	-0.998669	0.005129	-0.013659	0.004433	0.999897	
3798														-0.295132	0.283425	9.782960	-0.998266	-0.057306	-0.013427	0.057242	-0.998347	0.005116	-0.013698	0.004338	0.999897	
3799														-0.264867	0.230737	9.768948	-0.997621	-0.067659	-0.013205	0.067593	-0.997699	0.005374	-0.013539	0.004468	0.999898	
3800														0.018077	-0.124878	9.787906	-0.996882	-0.077762	-0.013408	0.077698	-0.996963	0.005212	-0.013773	0.004154	0.999897	
3801														-0.070283	-0.093975	9.758343	-0.996279	-0.085123	-0.013501	0.085060	-0.996362	0.005160	-0.013891	0.003992	0.999896	
3802														-0.108641	0.109509	9.784839	-0.995678	-0.091899	-0.013423	0.091837	-0.995760	0.005214	-0.013845	0.003959	0.999896	
3803														-0.143493	-0.011036	9.771995	-0.995102	-0.097953	-0.013297	0.097889	-0.995183	0.005395	-0.013761	0.004067	0.999897	
3804														-0.076677	0.106017	9.784819	-0.994337	-0.105420	-0.013445	0.105357	-0.994420	0.005278	-0.013926	0.003832	0.999896	
3805														-0.109398	0.061637	9.785491	-0.993521	-0.112840	-0.013503	0.112779	-0.993607	0.005154	-0.013998	0.003598	0.999896	
3806														-0.168815	0.131751	9.784567	-0.992683	-0.119981	-0.013610	0.119922	-0.992770	0.005058	-0.014118	0.003388	0.999895	
3807														-0.084059	0.069274	9.785296	-0.991791	-0.127138	-0.013633	0.127080	-0.991879	0.005090	-0.014170	0.003315	0.999894	
3808														-0.131326	-0.011764	9.801162	-0.990948	-0.133555	-0.013618	0.133496	-0.991036	0.005156	-0.014184	0.003292	0.999894	
3809														-0.112423	-0.020554	9.801251	-0.990090	-0.139769	-0.013689	0.139711	-0.990179	0.005112	-0.014269	0.003149	0.999893	
3810														-0.148471	0.105646	9.770181	-0.989309	-0.145196	-0.013659	0.145139	-0.989398	0.005059	-0.014249	0.003023	0.999894	
3811														-0.139019	-0.033460	9.786798	-0.988651	-0.149607	-0.013640	0.149551	-0.988741	0.005085	-0.014247	0.002987	0.999894	
3812														-0.106632	0.042736	9.771029	-0.988024	-0.153709	-0.013514	0.153653	-0.988112	0.005085	-0.014135	0.002947	0.999896	
3813														-0.175102	-0.017151	9.786655	-0.987457	-0.157322	-0.013356	0.157264	-0.987542	0.005316	-0.014026	0.003149	0.999897	
3814														-0.218574	-0.098446	9.817231	-0.986956	-0.160439	-0.013314	0.160381	-0.987041	0.005329	-0.013996	0.003124	0.999897	
3815														-0.132117	0.144766	9.769607	-0.986231	-0.164831	-0.013370	0.164773	-0.986317	0.005350	-0.014069	0.003073	0.999896	
3816														-0.074721	0.122476	9.799160	-0.985354	-0.170006	-0.013270	0.169948	-0.985438	0.005421	-0.013998	0.003087	0.999897	
3817														-0.258370	0.106165	9.799645	-0.984632	-0.174152	-0.013057	0.174092	-0.984714	0.005576	-0.013828	0.003217	0.999899	
3818														-0.139671	0.126743	9.769884	-0.983911	-0.178172	-0.013206	0.178112	-0.983994	0.005595	-0.013991	0.003153	0.999897	
3819														-0.119847	-0.138038	9.817691	-0.982680	-0.184812	-0.013602	0.184755	-0.982770	0.005313	-0.014350	0.002708	0.999893	
3820														-0.196326	-0.046807	9.787022	-0.981815	-0.189349	-0.013624	0.189293	-0.981907	0.005260	-0.014374	0.002586	0.999893	
3821														-0.136785	-0.036268	9.772173	-0.981042	-0.193318	-0.013607	0.193262	-0.981133	0.005317	-0.014378	0.002586	0.999893	
3822														-0.061656	0.080353	9.785071	-0.980378	-0.196658	-0.013595	0.196601	-0.980469	0.005390	-0.014390	0.002611	0.999893	
3823														-0.076645	0.008640	9.771488	-0.979836	-0.199336	-0.013632	0.199280	-0.979928	0.005387	-0.014432	0.002562	0.999893	
3824														-0.091144	-0.063405	9.772556	-0.979373	-0.201600	-0.013625	0.201544	-0.979465	0.005355	-0.014425	0.002498	0.999893	
3825														-0.187226	0.036373	9.785775	-0.978969	-0.203557	-0.013575	0.203502	-0.979060	0.005324	-0.014375	0.002450	0.999894	
3826														-0.186034	0.101786	9.784810	-0.978621	-0.205223	-0.013574	0.205168	-0.978712	0.005370	-0.014387	0.002470	0.999893	
3827														-0.095824	0.015069	9.771399	-0.978270	-0.206888	-0.013633	0.206833	-0.978362	0.005338	-0.014442	0.002402	0.999893	
3828														-0.109447	0.008535	9.771494	-0.977945	-0.208416	-0.013678	0.208361	-0.978037	0.005367	-0.014497	0.002399	0.999892	
3829														-0.103622	-0.069481	9.787310	-0.977638	-0.209852	-0.013618	0.209796	-0.977730	0.005429	-0.014454	0.002451	0.999893	
3830														-0.083195	-0.042908	9.801569	-0.977363	-0.211134	-0.013589	0.211079	-0.977454	0.005415	-0.014425	0.002424	0.999893	
3831														-0.128276	0.048866	9.785564	-0.977111	-0.212294	-0.013621	0.212238	-0.977203	0.005415	-0.014460	0.002400	0.999893	
3832														-0.128080	0.114243	9.769934	-0.976832	-0.213576	-0.013622	0.213520	-0.976924	0.005446	-0.014471	0.002411	0.999892	
3833														-0.128685	0.049477	9.800203	-0.976526	-0.214965	-0.013654	0.214909	-0.976619	0.005491	-0.014515	0.002428	0.999892	
3834														-0.168463	-0.036019	9.757549	-0.976172	-0.216568	-0.013652	0.216512	-0.976264	0.005506	-0.014521	0.002419	0.999892	
3835														-0.129149	0.017122	9.800690	-0.975832	-0.218095	-0.013682	0.218038	-0.975924	0.005552	-0.014564	0.002434	0.999891	
3836														-0.135788	0.030202	9.785845	-0.975448	-0.219804	-0.013665	0.219747	-0.975541	0.005567	-0.014554	0.002427	0.999891	
3837														-0.122374	0.004079	9.771596	-0.975090	-0.221392	-0.013618	0.221334	-0.975182	0.005613	-0.014523	0.002459	0.999892	
3838														-0.154653	0.004392	9.786258	-0.974778	-0.222763	-0.013572	0.222706	-0.974870	0.005598	-0.014478	0.002434	0.999892	
3839														-0.154255	0.004539	9.786264	-0.974432	-0.224274	-0.013541	0.224216	-0.974523	0.005644	-0.014462	0.002463	0.999892	
3840														-0.167182	0.030863	9.756578	-0.974081	-0.225799	-0.013480	0.225741	-0.974170	0.005736	-0.014427	0.002544	0.999893	
3841														-0.213386	0.057422	9.785479	-0.973689	-0.227477	-0.013554	0.227418	-0.973780	0.005735	-0.014503	0.002501	0.999892	
3842														-0.135098	0.064519	9.799997	-0.973224	-0.229459	-0.013534	0.229401	-0.973315	0.005703	-0.014482	0.002446	0.999892	
3843														-0.089593	0.103528	9.770087	-0.972806	-0.231226	-0.013531	0.231169	-0.972897	0.005672	-0.014476	0.002390	0.999892	
3844														-0.076417	0.077066	9.770487	-0.972424	-0.232826	-0.013590	0.232769	-0.972516	0.005626	-0.014526	0.002308	0.999892	
3845														-0.088417	-0.028172	9.772098	-0.972068	-0.234303	-0.013635	0.234246	-0.972161	0.005641	-0.014577	0.002290	0.999891	
3846														-0.141245	-0.022823	9.757361	-0.971732	-0.235688	-0.013681	0.235632	-0.971826	0.005626	-0.014621	0.002243	0.999891	
3847														-0.128007	-0.048430	9.787050	-0.971361	-0.237212	-0.013725	0.237155	-0.971455	0.005657	-0.014676	0.002240	0.999890	
3848														-0.208466	0.042013	9.800300	-0.970924	-0.238994	-0.013707	0.238937	-0.971019	0.005672	-0.014665	0.002231	0.999890	
3849														-0.194616	0.015971	9.786059	-0.970447	-0.240928	-0.013672	0.240871	-0.970540	0.005717	-0.014647	0.002255	0.999890	
3850														-0.247665	0.053864	9.785470	-0.969915	-0.243059	-0.013651	0.243003	-0.970009	0.005685	-0.014624	0.002197	0.999891	
3851														-0.187776	0.035216	9.785769	-0.969311	-0.245464	-0.013582	0.245408	-0.969403	0.005668	-0.014558	0.002161	0.999892	
3852														-0.193490	0.015406	9.800729	-0.968667	-0.247992	-0.013588	0.247935	-0.968760	0.005697	-0.014577	0.002149	0.999891	
3853														-0.162788	0.081592	9.799700	-0.967981	-0.250654	-0.013578	0.250599	-0.968074	0.005679	-0.014568	0.002095	0.999892	
3854														-0.089437	0.037663	9.771091	-0.967256	-0.253439	-0.013597	0.253383	-0.967349	0.005738	-0.014608	0.002105	0.999891	
3855														-0.109392	0.043632	9.770995	-0.966511	-0.256268	-0.013571	0.256212	-0.966604	0.005736	-0.014588	0.002067	0.999891	
3856														-0.107893	0.011078	9.786156	-0.965777	-0.259019	-0.013544	0.258964	-0.965870	0.005749	-0.014571	0.002044	0.999892	
3857														-0.134893	0.029302	9.785860	-0.964998	-0.261906	-0.013579	0.261851	-0.965091	0.005716	-0.014602	0.001961	0.999891	
3858														-0.154873	0.033946	9.756474	-0.964189	-0.264868	-0.013567	0.264813	-0.964283	0.005698	-0.014591	0.001901	0.999892	
3859														-0.103650	0.063006	9.799985	-0.963384	-0.267783	-0.013539	0.267729	-0.963478	0.005695	-0.014570	0.001862	0.999892	
3860														-0.134845	0.027892	9.771218	-0.962505	-0.270925	-0.013586	0.270871	-0.962599	0.005693	-0.014620	0.001800	0.999891	
3861														-0.049530	0.025899	9.785929	-0.961594	-0.274140	-0.013557	0.274087	-0.961688	0.005675	-0.014593	0.001741	0.999892	
3862														-0.059982	-0.013917	9.786552	-0.960690	-0.277295	-0.013511	0.277241	-0.960783	0.005717	-0.014567	0.001746	0.999892	
3863														-0.115830	-0.062772	9.787306	-0.959916	-0.279962	-0.013515	0.279908	-0.960009	0.005791	-0.014596	0.001776	0.999892	
3864														-0.155490	-0.030681	9.790447	-0.959259	-0.282196	-0.013492	0.282141	-0.959352	0.005813	-0.014584	0.001769	0.999892	
3865														-0.195150	0.001410	9.793587	-0.958602	-0.284429	-0.013469	0.284375	-0.958695	0.005834	-0.014572	0.001763	0.999892	
3866														-0.171634	0.091798	9.799492	-0.957940	-0.286654	-0.013461	0.286599	-0.958032	0.005879	-0.014582	0.001774	0.999892	
3867														-0.272439	0.031209	9.756448	-0.957190	-0.289150	-0.013437	0.289095	-0.957282	0.005862	-0.014558	0.001726	0.999893	
3868														-0.013765	-0.002106	9.771783	-0.956409	-0.291722	-0.013440	0.291666	-0.956502	0.005936	-0.014588	0.001758	0.999892	
3869														-0.079329	-0.005970	9.801113	-0.955695	-0.294050	-0.013461	0.293994	-0.955788	0.005997	-0.014630	0.001774	0.999891	
3870														-0.094622	0.018900	9.786051	-0.955000	-0.296300	-0.013485	0.296245	-0.955093	0.005966	-0.014647	0.001703	0.999891	
3871														-0.049395	0.028776	9.771274	-0.954337	-0.298429	-0.013463	0.298374	-0.954430	0.005980	-0.014634	0.001690	0.999891	
3872														-0.137390	0.061270	9.785338	-0.953698	-0.300467	-0.013441	0.300412	-0.953791	0.005994	-0.014621	0.001679	0.999892	
3873														-0.079573	0.079538	9.799739	-0.953035	-0.302563	-0.013405	0.302509	-0.953128	0.005977	-0.014585	0.001641	0.999892	
3874														-0.056343	0.041370	9.785718	-0.952266	-0.304975	-0.013414	0.304922	-0.952359	0.005884	-0.014570	0.001513	0.999893	
3875														-0.078316	-0.007149	9.786474	-0.951514	-0.307312	-0.013436	0.307259	-0.951608	0.005884	-0.014595	0.001470	0.999892	
3876														-0.095468	-0.035183	9.786908	-0.950658	-0.309950	-0.013441	0.309897	-0.950752	0.005883	-0.014602	0.001427	0.999892	
3877														-0.145111	0.072458	9.814436	-0.949819	-0.312511	-0.013414	0.312458	-0.949913	0.005926	-0.014594	0.001437	0.999892	
3878														-0.205965	0.085850	9.770211	-0.948918	-0.315238	-0.013429	0.315184	-0.949011	0.006016	-0.014641	0.001476	0.999892	
3879														-0.194890	0.041334	9.785595	-0.947817	-0.318535	-0.013350	0.318481	-0.947910	0.006056	-0.014584	0.001488	0.999893	
3880														-0.327713	0.112690	9.754994	-0.946559	-0.322253	-0.013370	0.322198	-0.946652	0.006191	-0.014652	0.001552	0.999891	
3881														-0.160142	-0.039960	9.786966	-0.945073	-0.326584	-0.013388	0.326528	-0.945167	0.006248	-0.014694	0.001533	0.999891	
3882														-0.134286	0.080635	9.755702	-0.943605	-0.330804	-0.013365	0.330749	-0.943699	0.006197	-0.014663	0.001427	0.999891	
3883														-0.093413	0.071987	9.770543	-0.942155	-0.334915	-0.013280	0.334861	-0.942247	0.006188	-0.014586	0.001383	0.999893	
3884														-0.056877	-0.008849	9.801223	-0.940803	-0.338694	-0.013288	0.338639	-0.940896	0.006216	-0.014608	0.001348	0.999892	
3885														-0.150583	0.103262	9.755294	-0.939403	-0.342557	-0.013334	0.342504	-0.939496	0.006093	-0.014614	0.001156	0.999893	
3886														-0.245101	0.163094	9.783468	-0.937708	-0.347168	-0.013347	0.347115	-0.937802	0.006165	-0.014658	0.001148	0.999892	
3887														0.020432	0.007227	9.771757	-0.935873	-0.352088	-0.013253	0.352035	-0.935966	0.006185	-0.014582	0.001122	0.999893	
3888														-0.059812	-0.029437	9.801559	-0.934078	-0.356823	-0.013234	0.356770	-0.934171	0.006255	-0.014595	0.001121	0.999893	
3889														-0.161627	-0.011355	9.771811	-0.932113	-0.361927	-0.013211	0.361873	-0.932206	0.006339	-0.014610	0.001128	0.999893	
3890														-0.139292	-0.067844	9.787438	-0.929837	-0.367737	-0.013159	0.367684	-0.929929	0.006298	-0.014553	0.001018	0.999894	
3891														-0.150165	-0.078376	9.743626	-0.927336	-0.373999	-0.013166	0.373949	-0.927429	0.006215	-0.014535	0.000840	0.999894	
3892														-0.136747	0.003208	9.800875	-0.924716	-0.380431	-0.013166	0.380381	-0.924809	0.006222	-0.014543	0.000746	0.999894	
3893														-0.162354	0.111314	9.813671	-0.922235	-0.386407	-0.013154	0.386357	-0.922328	0.006229	-0.014539	0.000663	0.999894	
3894														-0.200935	0.062668	9.785085	-0.919933	-0.391853	-0.013185	0.391805	-0.920028	0.006133	-0.014534	0.000476	0.999894	
3895														-0.219008	0.084588	9.799313	-0.917667	-0.397130	-0.013213	0.397083	-0.917762	0.006115	-0.014554	0.000365	0.999894	
3896														-0.254199	0.055743	9.785040	-0.915201	-0.402781	-0.013230	0.402736	-0.915296	0.006003	-0.014527	0.000166	0.999894	
3897														-0.218510	0.007749	9.815177	-0.912531	-0.408792	-0.013267	0.408748	-0.912628	0.005970	-0.014548	0.000025	0.999894	
3898														-0.094963	-0.008546	9.757120	-0.909672	-0.415118	-0.013194	0.415073	-0.909767	0.006110	-0.014540	0.000081	0.999894	
3899														-0.113138	0.109187	9.813740	-0.906895	-0.421151	-0.013185	0.421107	-0.906991	0.006072	-0.014516	-0.000046	0.999895	
3900														-0.209382	0.086883	9.784559	-0.904088	-0.427143	-0.013141	0.427100	-0.904184	0.006092	-0.014484	-0.000105	0.999895	
3901														-0.214161	0.039606	9.788973	-0.901128	-0.433300	-0.013165	0.433258	-0.901224	0.006089	-0.014503	-0.000218	0.999895	
3902														-0.218940	-0.007671	9.793388	-0.898167	-0.439457	-0.013190	0.439415	-0.898263	0.006085	-0.014523	-0.000331	0.999894	
3903														-0.052895	-0.013583	9.757301	-0.895293	-0.445283	-0.013171	0.445241	-0.895390	0.006154	-0.014534	-0.000354	0.999894	
3904														-0.022742	-0.025772	9.801540	-0.892510	-0.450834	-0.013200	0.450793	-0.892608	0.006092	-0.014529	-0.000513	0.999894	
3905														-0.113155	0.011177	9.785998	-0.889683	-0.456388	-0.013193	0.456348	-0.889781	0.006071	-0.014510	-0.000619	0.999895	
3906														-0.033007	-0.035874	9.787019	-0.886433	-0.462671	-0.013156	0.462630	-0.886530	0.006123	-0.014496	-0.000659	0.999895	
3907														0.052502	0.001141	9.801339	-0.882635	-0.469875	-0.013149	0.469836	-0.882733	0.006099	-0.014473	-0.000794	0.999895	
3908														0.127362	0.050200	9.771503	-0.878365	-0.477810	-0.013125	0.477769	-0.878463	0.006272	-0.014526	-0.000761	0.999894	
3909														-0.085711	-0.084363	9.787662	-0.873636	-0.486405	-0.013075	0.486366	-0.873733	0.006226	-0.014453	-0.000920	0.999895	
3910														0.056866	-0.213395	9.775675	-0.868624	-0.495300	-0.013051	0.495261	-0.868721	0.006306	-0.014462	-0.000986	0.999895	
3911														0.067807	-0.284911	9.776933	-0.863610	-0.503990	-0.013082	0.503951	-0.863709	0.006333	-0.014491	-0.001123	0.999894	
3912														-0.393652	-0.124425	9.787082	-0.858308	-0.512972	-0.012965	0.512935	-0.858405	0.006291	-0.014356	-0.001250	0.999896	
3913														-0.236275	-0.096703	9.787231	-0.852976	-0.521791	-0.012933	0.521754	-0.853073	0.006309	-0.014324	-0.001367	0.999896	
3914														-0.320001	0.065331	9.754846	-0.847839	-0.530095	-0.012970	0.530060	-0.847937	0.006307	-0.014340	-0.001528	0.999896	
3915														-0.352546	0.093355	9.798142	-0.842361	-0.538758	-0.012940	0.538723	-0.842459	0.006310	-0.014300	-0.001656	0.999896	
3916														-0.195652	0.022371	9.785335	-0.836682	-0.547536	-0.012935	0.547503	-0.836780	0.006332	-0.014291	-0.001784	0.999896	
3917														-0.266849	-0.014099	9.770917	-0.830870	-0.556315	-0.012959	0.556284	-0.830969	0.006282	-0.014263	-0.001989	0.999896	
3918														-0.215888	-0.041629	9.789899	-0.825010	-0.564874	-0.012966	0.564844	-0.825109	0.006247	-0.014227	-0.002170	0.999896	
3919														-0.164927	-0.069160	9.808881	-0.819150	-0.573433	-0.012973	0.573404	-0.819249	0.006211	-0.014190	-0.002352	0.999897	
3920														-0.200810	-0.059115	9.786513	-0.813120	-0.581952	-0.012947	0.581923	-0.813219	0.006263	-0.014174	-0.002442	0.999897	
3921														0.387242	-0.000925	9.803331	-0.807554	-0.589650	-0.012986	0.589624	-0.807654	0.006188	-0.014137	-0.002660	0.999897	
3922														-0.032147	0.253756	9.782306	-0.803399	-0.595295	-0.013195	0.595270	-0.803502	0.006228	-0.014310	-0.002851	0.999894	
3923														-0.335361	0.139853	9.782412	-0.799465	-0.600568	-0.013150	0.600544	-0.799568	0.006157	-0.014212	-0.002975	0.999895	
3924														-0.431310	0.252092	9.765388	-0.795377	-0.605972	-0.013169	0.605949	-0.795480	0.006145	-0.014199	-0.003092	0.999894	
3925														-0.374577	0.277239	9.809215	-0.791107	-0.611532	-0.013312	0.611509	-0.791213	0.006206	-0.014328	-0.003230	0.999892	
3926														-0.308216	0.219505	9.781183	-0.786406	-0.617565	-0.013383	0.617543	-0.786512	0.006206	-0.014358	-0.003384	0.999891	
3927														-0.420298	0.098455	9.782355	-0.781130	-0.624225	-0.013377	0.624204	-0.781237	0.006237	-0.014344	-0.003478	0.999891	
3928														-0.255031	-0.048772	9.800361	-0.775129	-0.631662	-0.013339	0.631640	-0.775236	0.006306	-0.014324	-0.003537	0.999891	
3929														-0.154116	-0.162038	9.773494	-0.768890	-0.639242	-0.013332	0.639221	-0.768997	0.006291	-0.014273	-0.003685	0.999891	
3930														-0.095264	-0.059333	9.786903	-0.762695	-0.646622	-0.013246	0.646602	-0.762801	0.006350	-0.014211	-0.003722	0.999892	
3931														0.523395	0.074951	9.789039	-0.757849	-0.652295	-0.013285	0.652275	-0.757956	0.006362	-0.014219	-0.003844	0.999892	
3932														-0.604958	0.156016	9.779914	-0.752590	-0.658358	-0.013164	0.658338	-0.752695	0.006429	-0.014141	-0.003828	0.999893	
3933														-0.361071	-0.034586	9.799278	-0.746709	-0.665022	-0.013109	0.665002	-0.746814	0.006449	-0.014078	-0.003902	0.999893	
3934														-0.140943	-0.027169	9.786055	-0.740615	-0.671801	-0.013125	0.671783	-0.740720	0.006423	-0.014037	-0.004060	0.999893	
3935														-0.128383	-0.089147	9.787109	-0.734574	-0.678402	-0.013110	0.678384	-0.734679	0.006469	-0.014021	-0.004142	0.999893	
3936														-0.142637	0.023058	9.785197	-0.728452	-0.684965	-0.013434	0.684947	-0.728563	0.006604	-0.014310	-0.004391	0.999888	
3937														-0.323369	0.014244	9.813160	-0.722275	-0.691475	-0.013435	0.691458	-0.722386	0.006640	-0.014297	-0.004494	0.999888	
3938														-0.340803	-0.099457	9.785426	-0.715926	-0.698045	-0.013539	0.698029	-0.716038	0.006642	-0.014331	-0.004696	0.999886	
3939														0.086072	-0.331036	9.777838	-0.711690	-0.702360	-0.013702	0.702345	-0.711805	0.006709	-0.014465	-0.004849	0.999884	
3940														-0.194366	0.165997	9.797106	-0.707944	-0.706135	-0.013727	0.706121	-0.708060	0.006723	-0.014467	-0.004933	0.999883	
3941														0.342496	0.064049	9.744715	-0.702874	-0.711181	-0.013762	0.711167	-0.702991	0.006756	-0.014479	-0.005038	0.999882	
3942														0.115790	0.030617	9.772585	-0.697595	-0.716361	-0.013685	0.716346	-0.697711	0.006837	-0.014446	-0.005033	0.999883	
3943														-0.306679	-0.112684	9.785677	-0.692382	-0.721401	-0.013699	0.721388	-0.692498	0.006769	-0.014370	-0.005195	0.999883	
3944														-0.249043	-0.045397	9.785149	-0.686866	-0.726658	-0.013569	0.726644	-0.686980	0.006803	-0.014265	-0.005187	0.999885	
3945														-0.102864	-0.178156	9.773832	-0.681181	-0.731990	-0.013506	0.731979	-0.681294	0.006713	-0.014115	-0.005314	0.999886	
3946														-0.297875	-0.020301	9.798957	-0.675467	-0.737267	-0.013473	0.737257	-0.675580	0.006631	-0.013991	-0.005454	0.999887	
3947														-0.198826	0.190459	9.767342	-0.668904	-0.743228	-0.013421	0.743218	-0.669016	0.006687	-0.013948	-0.005502	0.999888	
3948														0.126142	-0.163807	9.819631	-0.661683	-0.749665	-0.013326	0.749656	-0.661794	0.006697	-0.013840	-0.005559	0.999889	
3949														-0.114305	-0.186717	9.744500	-0.655161	-0.755371	-0.013375	0.755362	-0.655273	0.006737	-0.013854	-0.005689	0.999888	
3950														-0.113568	-0.088079	9.845545	-0.648095	-0.761441	-0.013408	0.761434	-0.648207	0.006708	-0.013799	-0.005862	0.999888	
3951														0.215858	-0.120878	9.761277	-0.641491	-0.767014	-0.013380	0.767007	-0.641603	0.006740	-0.013755	-0.005939	0.999888	
3952														0.077281	-0.002502	9.802138	-0.635810	-0.771729	-0.013405	0.771724	-0.635922	0.006693	-0.013690	-0.006089	0.999888	
3953														-0.987888	0.177853	9.774367	-0.629758	-0.776677	-0.013315	0.776671	-0.629869	0.006786	-0.013657	-0.006068	0.999888	
3954														-0.635375	0.167895	9.777909	-0.622971	-0.782131	-0.013353	0.782126	-0.623083	0.006760	-0.013608	-0.006232	0.999888	
3955														-0.418801	-0.033067	9.768339	-0.615662	-0.787897	-0.013348	0.787895	-0.615773	0.006657	-0.013464	-0.006419	0.999889	
3956														-0.906929	0.162900	9.804447	-0.607855	-0.793937	-0.013265	0.793935	-0.607966	0.006720	-0.013400	-0.006447	0.999889	
3957														-0.103644	0.096386	9.754943	-0.600022	-0.799874	-0.013207	0.799873	-0.600132	0.006711	-0.013294	-0.006537	0.999890	
3958														-0.327848	0.095082	9.825902	-0.593304	-0.804871	-0.013127	0.804870	-0.593413	0.006710	-0.013190	-0.006584	0.999891	
3959														-0.879906	0.094067	9.717553	-0.586119	-0.810116	-0.013303	0.810117	-0.586230	0.006705	-0.013230	-0.006847	0.999889	
3960														-0.765301	0.106072	9.865003	-0.581860	-0.813181	-0.013221	0.813183	-0.581970	0.006703	-0.013145	-0.006851	0.999890	
3961														0.043413	0.191332	9.681882	-0.576639	-0.816891	-0.013297	0.816893	-0.576750	0.006727	-0.013164	-0.006983	0.999889	
3962														0.040465	0.115995	9.888061	-0.568719	-0.822425	-0.013247	0.822427	-0.568830	0.006788	-0.013118	-0.007034	0.999889	
3963														0.751527	-0.118876	9.708754	-0.560888	-0.827786	-0.013237	0.827789	-0.560999	0.006831	-0.013081	-0.007126	0.999889	
3964														0.196203	-0.095763	9.790274	-0.554459	-0.832108	-0.013093	0.832110	-0.554568	0.006839	-0.012952	-0.007103	0.999891	
3965														-0.110657	0.094182	9.857436	-0.548210	-0.836238	-0.013068	0.836240	-0.548320	0.006924	-0.012956	-0.007132	0.999891	
3966														0.364083	-0.148536	9.763691	-0.542137	-0.840190	-0.012960	0.840191	-0.542245	0.006977	-0.012889	-0.007106	0.999892	
3967														0.171009	-0.126121	9.731928	-0.536685	-0.843684	-0.012925	0.843685	-0.536793	0.007026	-0.012866	-0.007134	0.999892	
3968														-0.560656	-0.143577	9.811742	-0.530976	-0.847289	-0.012880	0.847291	-0.531083	0.006971	-0.012747	-0.007211	0.999893	
3969														-1.029115	0.113316	9.817377	-0.525181	-0.850896	-0.012720	0.850897	-0.525286	0.006953	-0.012598	-0.007172	0.999895	
3970														-0.161312	0.078125	9.710580	-0.525536	-0.850675	-0.012765	0.850677	-0.525642	0.007014	-0.012677	-0.007172	0.999894	
3971														-0.928383	0.722786	9.882981	-0.521448	-0.853188	-0.012736	0.853189	-0.521554	0.007048	-0.012656	-0.007191	0.999894	
3972														0.775597	-0.014144	9.678845	-0.513273	-0.858130	-0.012778	0.858132	-0.513380	0.007115	-0.012665	-0.007313	0.999893	
3973														1.836444	-0.537688	9.903997	-0.507572	-0.861517	-0.012622	0.861518	-0.507677	0.007130	-0.012551	-0.007255	0.999895	
3974														0.928094	-0.518622	9.746643	-0.502507	-0.864480	-0.012641	0.864481	-0.502613	0.007218	-0.012593	-0.007301	0.999894	
3975														0.101126	-0.321243	9.719384	-0.496281	-0.868067	-0.012880	0.868067	-0.496391	0.007417	-0.012832	-0.007500	0.999890	
3976														-0.154181	-0.308622	9.803979	-0.490639	-0.871270	-0.012728	0.871271	-0.490747	0.007382	-0.012678	-0.007467	0.999892	
3977														-0.121071	-0.196047	9.788144	-0.485580	-0.874099	-0.012772	0.874100	-0.485689	0.007449	-0.012714	-0.007547	0.999891	
3978														-0.457629	-0.045553	9.737899	-0.481395	-0.876414	-0.012577	0.876415	-0.481501	0.007360	-0.012506	-0.007479	0.999894	
3979														-1.623680	-0.614679	9.863533	-0.481637	-0.876280	-0.012574	0.876283	-0.481742	0.007219	-0.012383	-0.007541	0.999895	
3980														-0.690608	1.002640	9.705696	-0.486854	-0.873390	-0.012774	0.873393	-0.486962	0.007279	-0.012578	-0.007613	0.999892	
3981														0.085661	0.400504	9.840919	-0.481792	-0.876191	-0.012877	0.876195	-0.481901	0.007289	-0.012592	-0.007771	0.999891	
3982														1.264836	-0.470468	9.735888	-0.477194	-0.878704	-0.012877	0.878708	-0.477304	0.007354	-0.012609	-0.007806	0.999890	
3983														0.234592	-0.001235	9.819136	-0.473187	-0.880868	-0.012890	0.880872	-0.473297	0.007407	-0.012625	-0.007849	0.999889	
3984														-0.003103	-0.167309	9.745203	-0.468085	-0.883590	-0.012871	0.883593	-0.468196	0.007464	-0.012621	-0.007879	0.999889	
3985														-0.108813	-0.291144	9.774875	-0.464058	-0.885712	-0.012833	0.885715	-0.464169	0.007478	-0.012580	-0.007896	0.999890	
3986														-0.075594	-0.284130	9.760545	-0.461031	-0.887291	-0.012854	0.887295	-0.461142	0.007501	-0.012583	-0.007947	0.999889	
3987														-0.411263	-0.489163	9.817663	-0.460622	-0.887504	-0.012837	0.887508	-0.460732	0.007487	-0.012559	-0.007944	0.999890	
3988														0.103491	0.713051	9.807679	-0.462761	-0.886389	-0.012888	0.886393	-0.462872	0.007502	-0.012615	-0.007952	0.999889	
3989														-0.035663	0.323955	9.781976	-0.460177	-0.887733	-0.012977	0.887736	-0.460290	0.007605	-0.012725	-0.008021	0.999887	
3990														0.004487	0.118809	9.785333	-0.456447	-0.889658	-0.012860	0.889661	-0.456558	0.007617	-0.012648	-0.007964	0.999888	
3991														-0.005511	-0.118603	9.788481	-0.450337	-0.892767	-0.012807	0.892770	-0.450448	0.007587	-0.012542	-0.008017	0.999889	
3992														-0.076504	-0.176498	9.788352	-0.442717	-0.896573	-0.012614	0.896577	-0.442824	0.007482	-0.012294	-0.007997	0.999892	
3993														-0.113066	-0.078657	9.757218	-0.433684	-0.900976	-0.012659	0.900980	-0.433793	0.007590	-0.012330	-0.008114	0.999891	
3994														-0.228346	-0.205125	9.801347	-0.425117	-0.905050	-0.012644	0.905057	-0.425225	0.007529	-0.012190	-0.008243	0.999892	
3995														-0.205382	-0.255617	9.758365	-0.419791	-0.907534	-0.012539	0.907540	-0.419898	0.007556	-0.012123	-0.008208	0.999893	
3996														0.023875	-0.075365	9.788268	-0.416843	-0.908892	-0.012526	0.908898	-0.416949	0.007557	-0.012091	-0.008235	0.999893	
3997														-0.009093	0.065058	9.785923	-0.413220	-0.910545	-0.012567	0.910551	-0.413327	0.007557	-0.012076	-0.008320	0.999892	
3998														0.023862	0.163780	9.785028	-0.408661	-0.912602	-0.012422	0.912608	-0.408766	0.007547	-0.011966	-0.008252	0.999894	
3999														0.010091	-0.159517	9.789255	-0.404135	-0.914617	-0.012285	0.914621	-0.404240	0.007649	-0.011961	-0.008145	0.999895	
4000														0.054378	-0.077418	9.788744	-0.400059	-0.916406	-0.012390	0.916411	-0.400165	0.007658	-0.011976	-0.008290	0.999894	
4001														-0.079564	0.272554	9.811483	-0.394784	-0.918692	-0.012292	0.918698	-0.394888	0.007592	-0.011829	-0.008295	0.999896	
4002														0.038351	-0.281835	9.747321	-0.387369	-0.921842	-0.012324	0.921849	-0.387474	0.007637	-0.011815	-0.008403	0.999895	
4003														0.041962	-0.547534	9.809562	-0.384855	-0.922896	-0.012198	0.922902	-0.384958	0.007622	-0.011730	-0.008325	0.999897	
4004														-0.070408	-0.424658	9.791793	-0.385940	-0.922447	-0.011944	0.922452	-0.386039	0.007470	-0.011501	-0.008135	0.999901	
4005														-0.082577	-0.034985	9.800993	-0.386657	-0.922149	-0.011721	0.922154	-0.386753	0.007395	-0.011353	-0.007949	0.999904	
4006														-0.097844	-0.046380	9.757018	-0.386809	-0.922086	-0.011642	0.922090	-0.386905	0.007418	-0.011344	-0.007866	0.999905	
4007														-0.114828	-0.057544	9.786265	-0.386580	-0.922183	-0.011621	0.922186	-0.386675	0.007428	-0.011344	-0.007845	0.999905	
4008														-0.112603	-0.042567	9.800740	-0.386325	-0.922290	-0.011599	0.922293	-0.386420	0.007428	-0.011333	-0.007828	0.999905	
4009														-0.116401	-0.071184	9.786453	-0.386164	-0.922358	-0.011504	0.922362	-0.386257	0.007374	-0.011245	-0.007763	0.999907	
4010														-0.083523	-0.047998	9.786535	-0.385554	-0.922609	-0.011902	0.922614	-0.385652	0.007463	-0.011476	-0.008104	0.999901	
4011														-0.114415	-0.046323	9.771408	-0.385215	-0.922746	-0.012193	0.922752	-0.385318	0.007599	-0.011710	-0.008324	0.999897	
4012														-0.118276	-0.062472	9.771547	-0.384897	-0.922877	-0.012369	0.922884	-0.385002	0.007656	-0.011828	-0.008468	0.999894	
4013														-0.116851	-0.048765	9.786015	-0.384696	-0.922959	-0.012450	0.922967	-0.384802	0.007657	-0.011858	-0.008545	0.999893	
4014														-0.174789	-0.040054	9.799752	-0.383307	-0.923537	-0.012459	0.923545	-0.383414	0.007616	-0.011811	-0.008587	0.999893	
4015														-0.123978	-0.004162	9.785302	-0.381086	-0.924455	-0.012515	0.924465	-0.381193	0.007566	-0.011765	-0.008686	0.999893	
4016														-0.072541	0.031814	9.756209	-0.376267	-0.926428	-0.012430	0.926439	-0.376371	0.007418	-0.011551	-0.008725	0.999895	
4017														-0.086401	-0.481019	9.777631	-0.374479	-0.927161	-0.011775	0.927168	-0.374575	0.007296	-0.011175	-0.008185	0.999904	
4018														-0.399491	-0.002311	9.781748	-0.374093	-0.927319	-0.011610	0.927325	-0.374186	0.007253	-0.011070	-0.008053	0.999906	
4019														0.118952	-0.106266	9.789962	-0.374191	-0.927279	-0.011578	0.927286	-0.374284	0.007213	-0.011022	-0.008037	0.999907	
4020														0.004490	0.118996	9.785320	-0.374769	-0.927049	-0.011326	0.927054	-0.374859	0.007190	-0.010911	-0.007806	0.999910	
4021														-0.131922	-0.008356	9.770723	-0.374590	-0.927121	-0.011408	0.927126	-0.374680	0.007201	-0.010950	-0.007879	0.999909	
4022														-0.410081	-0.086866	9.782899	-0.373821	-0.927429	-0.011518	0.927436	-0.373913	0.007176	-0.010962	-0.008000	0.999908	
4023														-0.101274	-0.101956	9.772438	-0.372559	-0.927939	-0.011316	0.927943	-0.372650	0.007284	-0.010976	-0.007787	0.999909	
4024														-0.040231	0.010720	9.786307	-0.371547	-0.928350	-0.010933	0.928351	-0.371633	0.007245	-0.010789	-0.007458	0.999914	
4025														-0.028647	-0.018777	9.772248	-0.371120	-0.928521	-0.010917	0.928522	-0.371206	0.007230	-0.010766	-0.007453	0.999914	
4026														0.052235	0.029359	9.787220	-0.370877	-0.928618	-0.010882	0.928620	-0.370962	0.007232	-0.010753	-0.007423	0.999915	
4027														-0.212603	-0.066014	9.770618	-0.370567	-0.928742	-0.010922	0.928743	-0.370653	0.007221	-0.010755	-0.007468	0.999914	
4028														-0.079646	-0.070943	9.743061	-0.369979	-0.928976	-0.010965	0.928978	-0.370065	0.007229	-0.010773	-0.007512	0.999914	
4029														-0.055400	-0.103433	9.787797	-0.369444	-0.929189	-0.010948	0.929190	-0.369530	0.007262	-0.010793	-0.007490	0.999914	
4030														-0.037244	-0.075947	9.802286	-0.369474	-0.929177	-0.010949	0.929178	-0.369560	0.007334	-0.010861	-0.007463	0.999913	
4031														-0.083233	0.019782	9.800307	-0.369618	-0.929120	-0.010923	0.929120	-0.369705	0.007391	-0.010905	-0.007417	0.999913	
4032														-0.049587	-0.059477	9.757949	-0.369770	-0.929059	-0.010960	0.929059	-0.369857	0.007362	-0.010893	-0.007461	0.999913	
4033														-0.107792	-0.051307	9.771733	-0.369954	-0.928985	-0.011025	0.928986	-0.370042	0.007380	-0.010936	-0.007511	0.999912	
4034														-0.157768	0.016084	9.814068	-0.369655	-0.929105	-0.010894	0.929105	-0.369742	0.007367	-0.010873	-0.007398	0.999914	
4035														-0.072186	-0.010796	9.786255	-0.369314	-0.929240	-0.010919	0.929241	-0.369401	0.007385	-0.010896	-0.007419	0.999913	
4036														-0.091144	-0.037485	9.801061	-0.369126	-0.929315	-0.010925	0.929315	-0.369213	0.007408	-0.010918	-0.007418	0.999913	
4037														-0.121953	-0.048136	9.771528	-0.368906	-0.929403	-0.010930	0.929402	-0.368993	0.007432	-0.010940	-0.007417	0.999913	
4038														-0.090864	-0.037700	9.771769	-0.368910	-0.929401	-0.010931	0.929401	-0.368997	0.007426	-0.010936	-0.007420	0.999913	
4039														-0.093015	-0.051778	9.786605	-0.368723	-0.929475	-0.010910	0.929475	-0.368810	0.007435	-0.010934	-0.007399	0.999913	
4040														-0.109584	-0.063982	9.786581	-0.368520	-0.929556	-0.010916	0.929555	-0.368607	0.007458	-0.010956	-0.007399	0.999913	
4041														-0.105277	-0.035147	9.771557	-0.368332	-0.929630	-0.010929	0.929630	-0.368420	0.007467	-0.010968	-0.007409	0.999912	
4042														-0.108024	-0.048985	9.815682	-0.368068	-0.929734	-0.010948	0.929734	-0.368156	0.007498	-0.011002	-0.007418	0.999912	
4043														-0.109649	-0.064023	9.771934	-0.368090	-0.929726	-0.010942	0.929725	-0.368179	0.007507	-0.011007	-0.007410	0.999912	
4044														-0.107549	-0.049315	9.771746	-0.367830	-0.929829	-0.010933	0.929828	-0.367918	0.007525	-0.011019	-0.007398	0.999912	
4045														-0.093222	-0.050969	9.786608	-0.367624	-0.929911	-0.010925	0.929909	-0.367712	0.007541	-0.011030	-0.007387	0.999912	
4046														-0.093387	-0.050434	9.801255	-0.367441	-0.929983	-0.010897	0.929981	-0.367529	0.007563	-0.011039	-0.007355	0.999912	
4047														-0.093055	-0.050711	9.771964	-0.367406	-0.929996	-0.010925	0.929995	-0.367495	0.007572	-0.011057	-0.007378	0.999912	
4048														-0.107625	-0.048311	9.786397	-0.367277	-0.930048	-0.010897	0.930046	-0.367365	0.007558	-0.011033	-0.007359	0.999912	
4049														-0.105096	-0.033993	9.756917	-0.367051	-0.930137	-0.010896	0.930135	-0.367139	0.007595	-0.011065	-0.007347	0.999912	
4050														-0.092870	-0.050354	9.771968	-0.366859	-0.930213	-0.010922	0.930211	-0.366947	0.007578	-0.011057	-0.007380	0.999912	
4051														-0.095220	-0.064421	9.801451	-0.366825	-0.930226	-0.010916	0.930224	-0.366914	0.007586	-0.011062	-0.007371	0.999912	
4052														-0.136207	-0.043594	9.785975	-0.366590	-0.930319	-0.010874	0.930317	-0.366677	0.007569	-0.011029	-0.007342	0.999912	
4053														-0.090104	-0.035271	9.771786	-0.366594	-0.930317	-0.010861	0.930316	-0.366682	0.007556	-0.011012	-0.007334	0.999912	
4054														-0.092156	-0.049458	9.786626	-0.366428	-0.930383	-0.010868	0.930381	-0.366516	0.007544	-0.011002	-0.007347	0.999912	
4055														-0.091803	-0.049532	9.771982	-0.366248	-0.930454	-0.010846	0.930452	-0.366335	0.007552	-0.011000	-0.007326	0.999913	
4056														-0.090148	-0.034169	9.815729	-0.366032	-0.930539	-0.010845	0.930537	-0.366119	0.007554	-0.011000	-0.007327	0.999913	
4057														-0.093687	-0.063464	9.772180	-0.366040	-0.930537	-0.010798	0.930534	-0.366127	0.007575	-0.011002	-0.007275	0.999913	
4058														-0.105797	-0.046902	9.757130	-0.365902	-0.930591	-0.010825	0.930589	-0.365989	0.007556	-0.010993	-0.007309	0.999913	
4059														-0.105882	-0.046793	9.771777	-0.365867	-0.930604	-0.010839	0.930602	-0.365954	0.007558	-0.011000	-0.007322	0.999913	
4060														-0.089606	-0.033886	9.801088	-0.365659	-0.930686	-0.010838	0.930684	-0.365746	0.007561	-0.011000	-0.007322	0.999913	
4061														-0.090972	-0.048903	9.757347	-0.365468	-0.930761	-0.010823	0.930759	-0.365555	0.007555	-0.010988	-0.007313	0.999913	
4062														-0.105771	-0.046223	9.786427	-0.365245	-0.930848	-0.010828	0.930846	-0.365333	0.007579	-0.011010	-0.007311	0.999913	
4063														-0.091166	-0.048313	9.786641	-0.365028	-0.930933	-0.010841	0.930932	-0.365115	0.007554	-0.010991	-0.007335	0.999913	
4064														-0.105358	-0.046252	9.771785	-0.364995	-0.930947	-0.010806	0.930944	-0.365082	0.007582	-0.011003	-0.007293	0.999913	
4065														-0.105640	-0.045443	9.801079	-0.364802	-0.931023	-0.010792	0.931020	-0.364889	0.007576	-0.010991	-0.007284	0.999913	
4066														-0.093231	-0.062128	9.801485	-0.364604	-0.931100	-0.010852	0.931097	-0.364691	0.007593	-0.011028	-0.007336	0.999912	
4067														-0.105336	-0.046044	9.771786	-0.364591	-0.931105	-0.010831	0.931103	-0.364678	0.007594	-0.011021	-0.007317	0.999913	
4068														-0.107550	-0.059796	9.801276	-0.364403	-0.931179	-0.010803	0.931176	-0.364491	0.007582	-0.010998	-0.007297	0.999913	
4069														-0.104935	-0.045597	9.771792	-0.364266	-0.931232	-0.010816	0.931230	-0.364353	0.007590	-0.011009	-0.007308	0.999913	
4070														-0.104829	-0.045605	9.771794	-0.364107	-0.931294	-0.010823	0.931292	-0.364194	0.007576	-0.010997	-0.007320	0.999913	
4071														-0.088056	-0.032937	9.786459	-0.363940	-0.931360	-0.010809	0.931358	-0.364027	0.007536	-0.010954	-0.007324	0.999913	
4072														-0.090025	-0.047338	9.786656	-0.363758	-0.931431	-0.010821	0.931429	-0.363845	0.007579	-0.010996	-0.007322	0.999913	
4073														-0.104656	-0.044877	9.786445	-0.363641	-0.931477	-0.010772	0.931474	-0.363728	0.007606	-0.011003	-0.007268	0.999913	
4074														-0.104246	-0.044800	9.771803	-0.363427	-0.931560	-0.010771	0.931558	-0.363514	0.007575	-0.010973	-0.007281	0.999913	
4075														-0.103924	-0.044717	9.771807	-0.363199	-0.931650	-0.010756	0.931647	-0.363285	0.007572	-0.010962	-0.007271	0.999913	
4076														-0.104171	-0.044170	9.801100	-0.362980	-0.931735	-0.010768	0.931732	-0.363067	0.007581	-0.010973	-0.007282	0.999913	
4077														-0.103877	-0.044297	9.786456	-0.363002	-0.931726	-0.010756	0.931724	-0.363088	0.007568	-0.010956	-0.007274	0.999914	
4078														-0.089085	-0.046505	9.772022	-0.362841	-0.931789	-0.010752	0.931787	-0.362927	0.007574	-0.010960	-0.007271	0.999914	
4079														-0.120072	-0.056477	9.786449	-0.362718	-0.931837	-0.010718	0.931835	-0.362804	0.007539	-0.010914	-0.007253	0.999914	
4080														-0.088507	-0.046284	9.757382	-0.362534	-0.931909	-0.010709	0.931906	-0.362620	0.007589	-0.010956	-0.007229	0.999914	
4081														-0.103518	-0.043687	9.786463	-0.362360	-0.931976	-0.010743	0.931974	-0.362446	0.007591	-0.010969	-0.007261	0.999913	
4082														-0.103226	-0.043815	9.771819	-0.362200	-0.932039	-0.010707	0.932036	-0.362286	0.007591	-0.010954	-0.007230	0.999914	
4083														-0.105497	-0.057714	9.801311	-0.362021	-0.932108	-0.010726	0.932105	-0.362107	0.007586	-0.010955	-0.007252	0.999914	
4084														-0.100735	-0.029349	9.756978	-0.361825	-0.932184	-0.010718	0.932181	-0.361911	0.007602	-0.010965	-0.007240	0.999914	
4085														-0.090698	-0.059819	9.786877	-0.361647	-0.932254	-0.010717	0.932251	-0.361733	0.007603	-0.010965	-0.007241	0.999914	
4086														-0.103049	-0.043086	9.786470	-0.361466	-0.932324	-0.010709	0.932321	-0.361553	0.007619	-0.010975	-0.007230	0.999914	
4087														-0.100992	-0.028215	9.786272	-0.361273	-0.932399	-0.010673	0.932395	-0.361360	0.007654	-0.010994	-0.007186	0.999914	
4088														-0.105227	-0.056885	9.801319	-0.361169	-0.932439	-0.010707	0.932436	-0.361256	0.007621	-0.010974	-0.007231	0.999914	
4089														-0.104816	-0.057291	9.772029	-0.360970	-0.932516	-0.010685	0.932512	-0.361057	0.007664	-0.011005	-0.007197	0.999914	
4090														-0.102711	-0.042477	9.771830	-0.360870	-0.932555	-0.010670	0.932551	-0.360956	0.007656	-0.010991	-0.007188	0.999914	
4091														-0.104803	-0.056600	9.786679	-0.360681	-0.932628	-0.010669	0.932624	-0.360767	0.007656	-0.010990	-0.007188	0.999914	
4092														-0.102418	-0.042129	9.771835	-0.360533	-0.932686	-0.010646	0.932682	-0.360619	0.007663	-0.010986	-0.007166	0.999914	
4093														-0.087855	-0.044056	9.772045	-0.360339	-0.932761	-0.010658	0.932757	-0.360425	0.007672	-0.010997	-0.007176	0.999914	
4094														-0.107157	-0.070278	9.816174	-0.360144	-0.932836	-0.010677	0.932832	-0.360230	0.007701	-0.011030	-0.007186	0.999913	
4095														-0.119375	-0.054200	9.786471	-0.359962	-0.932906	-0.010703	0.932902	-0.360049	0.007716	-0.011052	-0.007207	0.999913	
4096														-0.104410	-0.056639	9.757391	-0.359862	-0.932945	-0.010674	0.932940	-0.359948	0.007703	-0.011028	-0.007187	0.999913	
4097														-0.089921	-0.058344	9.772248	-0.359659	-0.933023	-0.010688	0.933019	-0.359745	0.007710	-0.011038	-0.007199	0.999913	
4098														-0.104423	-0.056370	9.772038	-0.359672	-0.933017	-0.010723	0.933014	-0.359759	0.007705	-0.011046	-0.007234	0.999913	
4099														-0.116784	-0.039742	9.771629	-0.359567	-0.933058	-0.010701	0.933054	-0.359654	0.007711	-0.011043	-0.007212	0.999913	
4100														-0.104711	-0.055651	9.801331	-0.359427	-0.933112	-0.010706	0.933108	-0.359514	0.007730	-0.011062	-0.007211	0.999913	
4101														-0.073898	-0.044865	9.816193	-0.359298	-0.933162	-0.010691	0.933157	-0.359385	0.007756	-0.011080	-0.007189	0.999913	
4102														-0.116852	-0.039209	9.771630	-0.359166	-0.933212	-0.010710	0.933208	-0.359253	0.007749	-0.011079	-0.007211	0.999913	
4103														-0.100608	-0.043909	9.610735	-0.359012	-0.933271	-0.010750	0.933266	-0.359100	0.007805	-0.011144	-0.007230	0.999912	
4104														-0.092609	-0.056040	9.918695	-0.358885	-0.933319	-0.010857	0.933314	-0.358974	0.007863	-0.011236	-0.007311	0.999910	
4105														-0.181643	-0.041192	10.078533	-0.358783	-0.933359	-0.010809	0.933354	-0.358871	0.007821	-0.011179	-0.007283	0.999911	
4106														-0.113649	-0.043731	9.478715	-0.358666	-0.933405	-0.010707	0.933400	-0.358754	0.007817	-0.011138	-0.007190	0.999912	
4107														-0.001151	-0.055892	9.758657	-0.358413	-0.933500	-0.010819	0.933496	-0.358502	0.007866	-0.011222	-0.007280	0.999911	
4108														-0.063234	-0.060340	9.889826	-0.358211	-0.933578	-0.010823	0.933573	-0.358300	0.007888	-0.011242	-0.007278	0.999910	
4109														-0.189408	-0.030099	9.697338	-0.358081	-0.933628	-0.010850	0.933623	-0.358171	0.007902	-0.011264	-0.007300	0.999910	
4110														-0.106483	-0.054657	9.859903	-0.357925	-0.933687	-0.010870	0.933683	-0.358015	0.007897	-0.011264	-0.007322	0.999910	
4111														-0.002053	-0.055707	9.787946	-0.357790	-0.933739	-0.010849	0.933734	-0.357881	0.007936	-0.011293	-0.007290	0.999910	
4112														-0.148256	-0.050288	9.712817	-0.357641	-0.933796	-0.010846	0.933791	-0.357732	0.007938	-0.011292	-0.007290	0.999910	
4113														-0.180716	-0.058735	9.829764	-0.357507	-0.933847	-0.010859	0.933842	-0.357598	0.007943	-0.011301	-0.007301	0.999909	
4114														-0.074702	-0.044760	9.801542	-0.357408	-0.933885	-0.010872	0.933880	-0.357498	0.007950	-0.011311	-0.007312	0.999909	
4115														-0.103104	-0.041242	9.757185	-0.357232	-0.933952	-0.010870	0.933947	-0.357322	0.007951	-0.011310	-0.007312	0.999909	
4116														-0.120043	-0.053200	9.786468	-0.357042	-0.934025	-0.010894	0.934020	-0.357133	0.007968	-0.011333	-0.007330	0.999909	
4117														-0.105828	-0.055042	9.801323	-0.356893	-0.934082	-0.010897	0.934076	-0.356984	0.007988	-0.011351	-0.007328	0.999909	
4118														-0.074063	-0.045360	9.742960	-0.356742	-0.934140	-0.010867	0.934134	-0.356833	0.008008	-0.011358	-0.007294	0.999909	
4119														-0.105590	-0.055020	9.772033	-0.356587	-0.934199	-0.010887	0.934193	-0.356678	0.008036	-0.011390	-0.007305	0.999908	
4120														-0.120744	-0.051860	9.830406	-0.356452	-0.934250	-0.010859	0.934244	-0.356543	0.008023	-0.011367	-0.007285	0.999909	
4121														-0.103058	-0.040130	9.771836	-0.356320	-0.934301	-0.010837	0.934295	-0.356411	0.007994	-0.011331	-0.007277	0.999909	
4122														-0.102758	-0.040160	9.757193	-0.356183	-0.934353	-0.010836	0.934347	-0.356273	0.008027	-0.011361	-0.007265	0.999909	
4123														-0.105245	-0.054139	9.786688	-0.356065	-0.934398	-0.010853	0.934392	-0.356156	0.008017	-0.011357	-0.007287	0.999909	
4124														-0.092827	-0.070716	9.787103	-0.355949	-0.934442	-0.010859	0.934436	-0.356040	0.008037	-0.011376	-0.007286	0.999909	
4125														-0.105309	-0.053809	9.801335	-0.355822	-0.934491	-0.010851	0.934485	-0.355912	0.008016	-0.011353	-0.007288	0.999909	
4126														-0.104912	-0.053951	9.786693	-0.355692	-0.934540	-0.010850	0.934534	-0.355783	0.008016	-0.011351	-0.007289	0.999909	
4127														-0.087935	-0.041674	9.772055	-0.355549	-0.934595	-0.010843	0.934589	-0.355639	0.007996	-0.011329	-0.007291	0.999909	
4128														-0.104388	-0.053785	9.772053	-0.355421	-0.934644	-0.010808	0.934637	-0.355512	0.008029	-0.011347	-0.007248	0.999909	
4129														-0.119106	-0.051311	9.786490	-0.355299	-0.934690	-0.010839	0.934684	-0.355389	0.008029	-0.011356	-0.007278	0.999909	
4130														-0.104777	-0.053052	9.801345	-0.355165	-0.934741	-0.010809	0.934735	-0.355255	0.008047	-0.011362	-0.007246	0.999909	
4131														-0.087810	-0.040679	9.772060	-0.355063	-0.934780	-0.010778	0.934773	-0.355153	0.008065	-0.011367	-0.007212	0.999909	
4132														-0.118640	-0.050995	9.757204	-0.354918	-0.934835	-0.010776	0.934828	-0.355008	0.008065	-0.011365	-0.007212	0.999909	
4133														-0.116904	-0.035923	9.786289	-0.354738	-0.934904	-0.010777	0.934897	-0.354828	0.008086	-0.011384	-0.007206	0.999909	
4134														-0.119155	-0.050082	9.801142	-0.354651	-0.934937	-0.010781	0.934929	-0.354742	0.008085	-0.011383	-0.007212	0.999909	
4135														-0.104317	-0.052354	9.786708	-0.354517	-0.934987	-0.010787	0.934980	-0.354607	0.008072	-0.011372	-0.007224	0.999909	
4136														-0.089746	-0.054173	9.786919	-0.354369	-0.935044	-0.010747	0.935036	-0.354459	0.008105	-0.011388	-0.007177	0.999909	
4137														-0.104278	-0.051828	9.786711	-0.354208	-0.935105	-0.010755	0.935097	-0.354298	0.008112	-0.011396	-0.007184	0.999909	
4138														-0.087602	-0.039520	9.786713	-0.354134	-0.935132	-0.010785	0.935125	-0.354225	0.008094	-0.011389	-0.007219	0.999909	
4139														-0.103901	-0.052182	9.772067	-0.353955	-0.935200	-0.010777	0.935193	-0.354046	0.008108	-0.011398	-0.007208	0.999909	
4140														-0.089570	-0.053921	9.786922	-0.353832	-0.935247	-0.010771	0.935239	-0.353923	0.008111	-0.011398	-0.007203	0.999909	
4141														-0.101907	-0.037467	9.771859	-0.353669	-0.935309	-0.010764	0.935301	-0.353760	0.008146	-0.011427	-0.007187	0.999909	
4142														-0.091743	-0.068201	9.787131	-0.353607	-0.935332	-0.010773	0.935325	-0.353697	0.008129	-0.011414	-0.007201	0.999909	
4143														-0.118773	-0.049154	9.801151	-0.353441	-0.935395	-0.010756	0.935387	-0.353532	0.008159	-0.011434	-0.007178	0.999909	
4144														-0.101293	-0.037705	9.727925	-0.353333	-0.935436	-0.010755	0.935428	-0.353423	0.008158	-0.011432	-0.007178	0.999909	
4145														-0.074740	-0.055506	9.772491	-0.353177	-0.935495	-0.010741	0.935487	-0.353267	0.008151	-0.011419	-0.007169	0.999909	
4146														-0.118123	-0.049171	9.771866	-0.353069	-0.935535	-0.010753	0.935527	-0.353160	0.008158	-0.011429	-0.007180	0.999909	
4147														-0.103746	-0.050964	9.786721	-0.352913	-0.935594	-0.010751	0.935586	-0.353004	0.008159	-0.011428	-0.007179	0.999909	
4148														-0.118478	-0.048207	9.815806	-0.352828	-0.935627	-0.010729	0.935618	-0.352919	0.008162	-0.011423	-0.007159	0.999909	
4149														-0.102927	-0.051327	9.742790	-0.352677	-0.935683	-0.010734	0.935675	-0.352768	0.008148	-0.011410	-0.007170	0.999909	
4150														-0.103114	-0.051003	9.764758	-0.352609	-0.935709	-0.010753	0.935701	-0.352700	0.008147	-0.011415	-0.007189	0.999909	
4151														-0.103301	-0.050678	9.786727	-0.352540	-0.935735	-0.010771	0.935727	-0.352631	0.008146	-0.011420	-0.007207	0.999909	
4152														-0.101290	-0.035950	9.801164	-0.352456	-0.935766	-0.010769	0.935759	-0.352547	0.008141	-0.011415	-0.007208	0.999909	
4153														-0.100992	-0.036475	9.771872	-0.352327	-0.935814	-0.010809	0.935807	-0.352419	0.008162	-0.011447	-0.007240	0.999908	
4154														-0.120041	-0.063140	9.786727	-0.352247	-0.935845	-0.010805	0.935837	-0.352339	0.008193	-0.011474	-0.007226	0.999908	
4155														-0.115784	-0.034058	9.771662	-0.352060	-0.935916	-0.010775	0.935907	-0.352151	0.008215	-0.011483	-0.007192	0.999908	
4156														-0.117898	-0.048290	9.771873	-0.351958	-0.935954	-0.010780	0.935945	-0.352050	0.008233	-0.011501	-0.007192	0.999908	
4157														-0.089166	-0.051991	9.786936	-0.351834	-0.936000	-0.010766	0.935991	-0.351926	0.008259	-0.011519	-0.007171	0.999908	
4158														-0.105835	-0.064193	9.786939	-0.351729	-0.936040	-0.010771	0.936031	-0.351821	0.008278	-0.011538	-0.007170	0.999908	
4159														-0.101335	-0.035394	9.771873	-0.351619	-0.936081	-0.010772	0.936072	-0.351711	0.008244	-0.011506	-0.007185	0.999908	
4160														-0.103357	-0.049737	9.772085	-0.351549	-0.936108	-0.010762	0.936098	-0.351641	0.008290	-0.011545	-0.007160	0.999908	
4161														-0.118122	-0.047692	9.771873	-0.351388	-0.936167	-0.010819	0.936158	-0.351481	0.008304	-0.011577	-0.007210	0.999907	
4162														-0.118400	-0.047447	9.786518	-0.351276	-0.936210	-0.010790	0.936200	-0.351369	0.008321	-0.011582	-0.007179	0.999907	
4163														-0.116006	-0.032775	9.771664	-0.351128	-0.936266	-0.010752	0.936256	-0.351220	0.008321	-0.011567	-0.007145	0.999908	
4164														-0.101860	-0.033882	9.815812	-0.351004	-0.936312	-0.010751	0.936303	-0.351096	0.008320	-0.011565	-0.007146	0.999908	
4165														-0.105442	-0.063163	9.786950	-0.350878	-0.936360	-0.010723	0.936350	-0.350969	0.008304	-0.011539	-0.007127	0.999908	
4166														-0.117851	-0.045989	9.801178	-0.350730	-0.936415	-0.010692	0.936405	-0.350822	0.008324	-0.011546	-0.007093	0.999908	
4167														-0.117426	-0.046212	9.771889	-0.350592	-0.936467	-0.010689	0.936457	-0.350684	0.008323	-0.011542	-0.007092	0.999908	
4168														-0.102799	-0.047982	9.772100	-0.350509	-0.936499	-0.010644	0.936488	-0.350600	0.008332	-0.011535	-0.007047	0.999909	
4169														-0.103079	-0.047238	9.801393	-0.350399	-0.936540	-0.010656	0.936529	-0.350490	0.008337	-0.011542	-0.007058	0.999908	
4170														-0.104872	-0.061881	9.786964	-0.350316	-0.936571	-0.010641	0.936560	-0.350407	0.008328	-0.011528	-0.007049	0.999909	
4171														-0.102678	-0.047285	9.786751	-0.350238	-0.936600	-0.010655	0.936590	-0.350329	0.008331	-0.011535	-0.007062	0.999909	
4172														-0.104644	-0.061686	9.786968	-0.350129	-0.936641	-0.010636	0.936631	-0.350219	0.008320	-0.011518	-0.007049	0.999909	
4173														-0.106597	-0.050195	9.786756	-0.350079	-0.936660	-0.010637	0.936649	-0.350169	0.008318	-0.011516	-0.007052	0.999909	
4174														-0.108549	-0.038703	9.786544	-0.350029	-0.936678	-0.010639	0.936668	-0.350120	0.008315	-0.011514	-0.007054	0.999909	
4175														-0.102066	-0.046852	9.786759	-0.349887	-0.936732	-0.010627	0.936721	-0.349978	0.008295	-0.011489	-0.007052	0.999909	
4176														-0.099705	-0.032604	9.771899	-0.349784	-0.936770	-0.010652	0.936760	-0.349874	0.008306	-0.011508	-0.007073	0.999909	
4177														-0.089748	-0.062926	9.801830	-0.349691	-0.936805	-0.010601	0.936794	-0.349781	0.008329	-0.011511	-0.007019	0.999909	
4178														-0.116296	-0.044443	9.771911	-0.349576	-0.936848	-0.010613	0.936837	-0.349667	0.008337	-0.011522	-0.007029	0.999909	
4179														-0.116623	-0.044136	9.786555	-0.349429	-0.936902	-0.010624	0.936891	-0.349520	0.008377	-0.011562	-0.007026	0.999908	
4180														-0.118778	-0.058703	9.772124	-0.349329	-0.936940	-0.010619	0.936928	-0.349420	0.008408	-0.011588	-0.007012	0.999908	
4181														-0.087965	-0.047896	9.786968	-0.349195	-0.936990	-0.010611	0.936978	-0.349286	0.008423	-0.011599	-0.007001	0.999908	
4182														-0.104655	-0.059918	9.801624	-0.349097	-0.937026	-0.010611	0.937015	-0.349188	0.008422	-0.011597	-0.007002	0.999908	
4183														-0.087501	-0.047792	9.772327	-0.349010	-0.937059	-0.010580	0.937047	-0.349101	0.008402	-0.011567	-0.006981	0.999909	
4184														-0.101803	-0.045644	9.757476	-0.348907	-0.937098	-0.010571	0.937085	-0.348998	0.008449	-0.011607	-0.006958	0.999908	
4185														-0.102472	-0.044739	9.801411	-0.348786	-0.937143	-0.010582	0.937131	-0.348877	0.008455	-0.011615	-0.006968	0.999908	
4186														-0.102193	-0.044991	9.786767	-0.348667	-0.937187	-0.010586	0.937175	-0.348757	0.008443	-0.011605	-0.006978	0.999908	
4187														-0.089888	-0.061166	9.801840	-0.348558	-0.937228	-0.010571	0.937215	-0.348648	0.008469	-0.011623	-0.006955	0.999908	
4188														-0.087276	-0.047301	9.757686	-0.348491	-0.937252	-0.010592	0.937240	-0.348582	0.008460	-0.011621	-0.006979	0.999908	
4189														-0.116691	-0.042415	9.801208	-0.348383	-0.937292	-0.010589	0.937280	-0.348474	0.008456	-0.011616	-0.006979	0.999908	
4190														-0.101839	-0.044487	9.786773	-0.348287	-0.937329	-0.010550	0.937316	-0.348377	0.008450	-0.011596	-0.006945	0.999909	
4191														-0.101621	-0.044397	9.786775	-0.348192	-0.937363	-0.010577	0.937351	-0.348283	0.008429	-0.011584	-0.006979	0.999909	
4192														-0.101557	-0.044243	9.786777	-0.348121	-0.937390	-0.010539	0.937378	-0.348211	0.008457	-0.011597	-0.006935	0.999909	
4193														-0.118427	-0.056121	9.816081	-0.348041	-0.937419	-0.010589	0.937408	-0.348132	0.008430	-0.011588	-0.006992	0.999908	
4194														-0.086895	-0.046279	9.786985	-0.347988	-0.937440	-0.010564	0.937427	-0.348078	0.008445	-0.011594	-0.006964	0.999909	
4195														-0.115478	-0.041967	9.771931	-0.347883	-0.937479	-0.010520	0.937467	-0.347973	0.008420	-0.011555	-0.006933	0.999909	
4196														-0.117334	-0.056269	9.772156	-0.347805	-0.937508	-0.010533	0.937496	-0.347895	0.008427	-0.011564	-0.006944	0.999909	
4197														-0.103126	-0.057801	9.801653	-0.347676	-0.937556	-0.010530	0.937543	-0.347766	0.008426	-0.011562	-0.006943	0.999909	
4198														-0.115203	-0.041327	9.786584	-0.347525	-0.937612	-0.010514	0.937600	-0.347615	0.008420	-0.011550	-0.006931	0.999909	
4199														-0.103006	-0.057202	9.816304	-0.347392	-0.937661	-0.010504	0.937649	-0.347482	0.008433	-0.011557	-0.006920	0.999909	
4200														-0.100409	-0.043056	9.786794	-0.347243	-0.937717	-0.010497	0.937704	-0.347332	0.008411	-0.011533	-0.006922	0.999910	
4201														-0.102417	-0.057294	9.787018	-0.347156	-0.937749	-0.010472	0.937736	-0.347246	0.008450	-0.011561	-0.006886	0.999909	
4202														-0.102233	-0.057332	9.772374	-0.347076	-0.937779	-0.010480	0.937766	-0.347165	0.008436	-0.011549	-0.006900	0.999909	
4203														-0.097960	-0.028238	9.771930	-0.346947	-0.937826	-0.010471	0.937814	-0.347037	0.008448	-0.011557	-0.006889	0.999909	
4204														-0.102267	-0.056670	9.787023	-0.346843	-0.937865	-0.010442	0.937852	-0.346933	0.008466	-0.011563	-0.006857	0.999910	
4205														-0.087525	-0.058737	9.772585	-0.346715	-0.937912	-0.010437	0.937899	-0.346804	0.008464	-0.011558	-0.006854	0.999910	
4206														-0.085496	-0.043785	9.787009	-0.346658	-0.937934	-0.010417	0.937920	-0.346747	0.008467	-0.011553	-0.006835	0.999910	
4207														-0.101515	-0.056618	9.757740	-0.346601	-0.937955	-0.010432	0.937942	-0.346690	0.008436	-0.011529	-0.006860	0.999910	
4208														-0.112000	-0.025270	9.786379	-0.346508	-0.937989	-0.010474	0.937976	-0.346597	0.008422	-0.011530	-0.006906	0.999910	
4209														-0.130593	-0.052036	9.786624	-0.346445	-0.938012	-0.010425	0.937999	-0.346534	0.008444	-0.011533	-0.006854	0.999910	
4210														-0.115692	-0.054062	9.772188	-0.346354	-0.938046	-0.010425	0.938033	-0.346443	0.008409	-0.011499	-0.006866	0.999910	
4211														-0.101145	-0.055797	9.787040	-0.346230	-0.938092	-0.010417	0.938079	-0.346319	0.008421	-0.011507	-0.006856	0.999910	
4212														-0.099170	-0.040894	9.801462	-0.346155	-0.938120	-0.010414	0.938107	-0.346244	0.008417	-0.011502	-0.006856	0.999910	
4213														-0.102818	-0.070247	9.772624	-0.346057	-0.938156	-0.010399	0.938143	-0.346145	0.008406	-0.011486	-0.006847	0.999911	
4214														-0.115013	-0.053477	9.772199	-0.345941	-0.938199	-0.010382	0.938186	-0.346030	0.008398	-0.011471	-0.006835	0.999911	
4215														-0.112993	-0.038628	9.786620	-0.345893	-0.938216	-0.010395	0.938204	-0.345982	0.008402	-0.011480	-0.006846	0.999911	
4216														-0.100439	-0.055188	9.772405	-0.345803	-0.938250	-0.010356	0.938237	-0.345891	0.008432	-0.011493	-0.006801	0.999911	
4217														-0.129532	-0.050524	9.786646	-0.345657	-0.938304	-0.010361	0.938291	-0.345745	0.008416	-0.011479	-0.006813	0.999911	
4218														-0.115021	-0.052497	9.786850	-0.345545	-0.938345	-0.010359	0.938332	-0.345633	0.008449	-0.011508	-0.006801	0.999911	
4219														-0.071507	-0.058514	9.787461	-0.345480	-0.938369	-0.010344	0.938356	-0.345568	0.008437	-0.011492	-0.006792	0.999911	
4220														-0.097863	-0.040176	9.757540	-0.345382	-0.938405	-0.010330	0.938392	-0.345470	0.008427	-0.011477	-0.006783	0.999911	
4221														-0.098247	-0.039212	9.801478	-0.345281	-0.938443	-0.010322	0.938429	-0.345368	0.008440	-0.011485	-0.006773	0.999911	
4222														-0.116559	-0.066536	9.772441	-0.345169	-0.938484	-0.010318	0.938470	-0.345257	0.008444	-0.011487	-0.006768	0.999911	
4223														-0.114254	-0.052244	9.757569	-0.345088	-0.938513	-0.010315	0.938500	-0.345176	0.008439	-0.011480	-0.006769	0.999911	
4224														-0.111957	-0.037656	9.757344	-0.345023	-0.938538	-0.010310	0.938524	-0.345110	0.008416	-0.011457	-0.006773	0.999911	
4225														-0.099544	-0.053933	9.772421	-0.344929	-0.938572	-0.010322	0.938559	-0.345017	0.008422	-0.011466	-0.006782	0.999911	
4226														-0.114364	-0.051138	9.801511	-0.344888	-0.938587	-0.010295	0.938574	-0.344976	0.008436	-0.011469	-0.006753	0.999911	
4227														-0.087156	-0.069839	9.787501	-0.344823	-0.938611	-0.010301	0.938598	-0.344910	0.008420	-0.011456	-0.006765	0.999911	
4228														-0.085022	-0.055291	9.787273	-0.344714	-0.938651	-0.010305	0.938638	-0.344801	0.008439	-0.011475	-0.006763	0.999911	
4229														-0.111816	-0.036735	9.771995	-0.344630	-0.938682	-0.010294	0.938668	-0.344718	0.008449	-0.011479	-0.006751	0.999911	
4230														-0.099275	-0.053106	9.772428	-0.344552	-0.938711	-0.010279	0.938697	-0.344640	0.008438	-0.011464	-0.006741	0.999912	
4231														-0.084829	-0.054828	9.787277	-0.344457	-0.938746	-0.010291	0.938732	-0.344545	0.008442	-0.011471	-0.006752	0.999911	
4232														-0.113667	-0.050636	9.786876	-0.344436	-0.938754	-0.010284	0.938740	-0.344523	0.008417	-0.011445	-0.006754	0.999912	
4233														-0.098502	-0.053332	9.743144	-0.344344	-0.938788	-0.010274	0.938774	-0.344431	0.008428	-0.011450	-0.006743	0.999912	
4234														-0.096854	-0.038209	9.772204	-0.344238	-0.938826	-0.010289	0.938812	-0.344326	0.008453	-0.011478	-0.006750	0.999911	
4235														-0.098925	-0.052602	9.772435	-0.344104	-0.938875	-0.010271	0.938862	-0.344191	0.008443	-0.011462	-0.006737	0.999912	
4236														-0.096905	-0.037451	9.801498	-0.343980	-0.938921	-0.010262	0.938907	-0.344067	0.008421	-0.011438	-0.006738	0.999912	
4237														-0.100724	-0.066559	9.787317	-0.343836	-0.938974	-0.010251	0.938960	-0.343923	0.008432	-0.011443	-0.006726	0.999912	
4238														-0.098850	-0.051642	9.801732	-0.343730	-0.939013	-0.010256	0.938999	-0.343817	0.008452	-0.011463	-0.006725	0.999912	
4239														-0.111142	-0.035463	9.772007	-0.343701	-0.939023	-0.010266	0.939009	-0.343789	0.008487	-0.011499	-0.006723	0.999911	
4240														-0.113379	-0.049599	9.786884	-0.343659	-0.939038	-0.010263	0.939024	-0.343746	0.008464	-0.011476	-0.006729	0.999912	
4241														-0.113376	-0.049194	9.801532	-0.343651	-0.939041	-0.010258	0.939027	-0.343739	0.008473	-0.011482	-0.006721	0.999911	
4242														-0.098209	-0.052301	9.743153	-0.343536	-0.939083	-0.010291	0.939069	-0.343624	0.008471	-0.011492	-0.006754	0.999911	
4243														-0.098601	-0.051536	9.787089	-0.343497	-0.939098	-0.010277	0.939084	-0.343584	0.008460	-0.011476	-0.006745	0.999911	
4244														-0.113091	-0.048951	9.801537	-0.343142	-0.939227	-0.010272	0.939214	-0.343229	0.008426	-0.011440	-0.006756	0.999912	
4245														-0.114943	-0.063253	9.801773	-0.343056	-0.939259	-0.010263	0.939246	-0.343143	0.008402	-0.011413	-0.006757	0.999912	
4246														-0.112200	-0.049383	9.757607	-0.342954	-0.939296	-0.010253	0.939283	-0.343041	0.008413	-0.011419	-0.006745	0.999912	
4247														-0.097965	-0.050787	9.787100	-0.342862	-0.939330	-0.010253	0.939317	-0.342949	0.008411	-0.011417	-0.006747	0.999912	
4248														-0.097575	-0.050851	9.772458	-0.342795	-0.939354	-0.010227	0.939341	-0.342882	0.008394	-0.011392	-0.006729	0.999912	
4249														-0.124336	-0.032161	9.771827	-0.342698	-0.939390	-0.010258	0.939377	-0.342784	0.008393	-0.011400	-0.006760	0.999912	
4250														-0.097579	-0.050550	9.787105	-0.342588	-0.939430	-0.010247	0.939417	-0.342675	0.008404	-0.011406	-0.006748	0.999912	
4251														-0.082691	-0.052688	9.772662	-0.342489	-0.939466	-0.010227	0.939453	-0.342575	0.008375	-0.011371	-0.006739	0.999913	
4252														-0.113437	-0.063149	9.757855	-0.342406	-0.939496	-0.010230	0.939483	-0.342492	0.008392	-0.011388	-0.006737	0.999912	
4253														-0.109813	-0.033212	9.801323	-0.342401	-0.939498	-0.010224	0.939485	-0.342487	0.008399	-0.011393	-0.006730	0.999912	
4254														-0.098857	-0.064861	9.758057	-0.342349	-0.939517	-0.010211	0.939504	-0.342436	0.008389	-0.011379	-0.006721	0.999913	
4255														-0.096884	-0.049645	9.787116	-0.342295	-0.939537	-0.010198	0.939524	-0.342381	0.008380	-0.011365	-0.006713	0.999913	
4256														-0.111327	-0.047521	9.786918	-0.342231	-0.939560	-0.010223	0.939547	-0.342318	0.008390	-0.011382	-0.006734	0.999913	
4257														-0.111259	-0.047369	9.786920	-0.342152	-0.939589	-0.010189	0.939576	-0.342238	0.008384	-0.011365	-0.006705	0.999913	
4258														-0.093861	-0.035541	9.742952	-0.342118	-0.939602	-0.010191	0.939589	-0.342203	0.008347	-0.011330	-0.006720	0.999913	
4259														-0.098232	-0.063614	9.787362	-0.342073	-0.939618	-0.010171	0.939605	-0.342159	0.008349	-0.011325	-0.006700	0.999913	
4260														-0.096292	-0.048539	9.801773	-0.341993	-0.939648	-0.010155	0.939634	-0.342078	0.008372	-0.011341	-0.006679	0.999913	
4261														-0.110393	-0.046730	9.772287	-0.341903	-0.939680	-0.010141	0.939667	-0.341989	0.008362	-0.011326	-0.006670	0.999914	
4262														-0.095997	-0.048494	9.787131	-0.341863	-0.939695	-0.010165	0.939682	-0.341948	0.008369	-0.011340	-0.006691	0.999913	
4263														-0.095980	-0.048587	9.772485	-0.341771	-0.939729	-0.010140	0.939715	-0.341856	0.008406	-0.011366	-0.006656	0.999913	
4264														-0.110499	-0.046036	9.772289	-0.341709	-0.939752	-0.010099	0.939737	-0.341794	0.008416	-0.011361	-0.006614	0.999914	
4265														-0.112768	-0.059897	9.787174	-0.341650	-0.939773	-0.010096	0.939758	-0.341735	0.008447	-0.011389	-0.006602	0.999913	
4266														-0.096032	-0.047736	9.772489	-0.341594	-0.939793	-0.010122	0.939779	-0.341679	0.008424	-0.011376	-0.006635	0.999913	
4267														-0.095820	-0.047752	9.772491	-0.341507	-0.939825	-0.010108	0.939810	-0.341593	0.008413	-0.011360	-0.006627	0.999914	
4268														-0.095868	-0.047390	9.787137	-0.341456	-0.939843	-0.010121	0.939829	-0.341542	0.008418	-0.011368	-0.006638	0.999913	
4269														-0.095757	-0.047292	9.787139	-0.341434	-0.939851	-0.010108	0.939837	-0.341519	0.008405	-0.011352	-0.006630	0.999914	
4270														-0.111995	-0.059728	9.772538	-0.341333	-0.939888	-0.010086	0.939874	-0.341418	0.008409	-0.011347	-0.006609	0.999914	
4271														-0.109956	-0.045070	9.772300	-0.341198	-0.939937	-0.010103	0.939922	-0.341284	0.008435	-0.011376	-0.006618	0.999913	
4272														-0.095721	-0.046566	9.801788	-0.341078	-0.939981	-0.010097	0.939966	-0.341163	0.008414	-0.011354	-0.006621	0.999914	
4273														-0.109996	-0.044602	9.786947	-0.341077	-0.939981	-0.010096	0.939967	-0.341162	0.008444	-0.011381	-0.006610	0.999913	
4274														-0.095418	-0.046618	9.772500	-0.340957	-0.940025	-0.010063	0.940010	-0.341042	0.008459	-0.011383	-0.006576	0.999914	
4275														-0.082980	-0.062673	9.787586	-0.340931	-0.940035	-0.010055	0.940020	-0.341015	0.008433	-0.011356	-0.006577	0.999914	
4276														-0.095186	-0.046010	9.787151	-0.340888	-0.940050	-0.010055	0.940035	-0.340973	0.008428	-0.011352	-0.006579	0.999914	
4277														-0.097151	-0.060411	9.787393	-0.340838	-0.940068	-0.010056	0.940054	-0.340922	0.008425	-0.011348	-0.006581	0.999914	
4278														-0.109404	-0.043691	9.786958	-0.340808	-0.940079	-0.010042	0.940065	-0.340892	0.008413	-0.011332	-0.006573	0.999914	
4279														-0.080074	-0.047651	9.787355	-0.340677	-0.940127	-0.010020	0.940112	-0.340761	0.008384	-0.011296	-0.006564	0.999915	
4280														-0.108750	-0.043729	9.772319	-0.340551	-0.940172	-0.010045	0.940158	-0.340635	0.008396	-0.011316	-0.006584	0.999914	
4281														-0.096750	-0.059452	9.816693	-0.340562	-0.940168	-0.010033	0.940154	-0.340647	0.008384	-0.011300	-0.006577	0.999915	
4282														-0.094075	-0.045551	9.772518	-0.340453	-0.940208	-0.010023	0.940193	-0.340537	0.008396	-0.011307	-0.006566	0.999915	
4283														-0.110750	-0.057862	9.772564	-0.340411	-0.940223	-0.010043	0.940208	-0.340496	0.008420	-0.011336	-0.006576	0.999914	
4284														-0.110958	-0.057539	9.787209	-0.340307	-0.940261	-0.010039	0.940246	-0.340391	0.008416	-0.011331	-0.006575	0.999914	
4285														-0.110686	-0.057708	9.772565	-0.340245	-0.940283	-0.010039	0.940269	-0.340329	0.008413	-0.011327	-0.006577	0.999914	
4286														-0.093781	-0.045405	9.757876	-0.340174	-0.940309	-0.010024	0.940295	-0.340258	0.008402	-0.011312	-0.006568	0.999914	
4287														-0.095890	-0.059638	9.758120	-0.340068	-0.940348	-0.010012	0.940333	-0.340152	0.008446	-0.011348	-0.006543	0.999914	
4288														-0.110533	-0.057086	9.772571	-0.340051	-0.940354	-0.010008	0.940339	-0.340135	0.008421	-0.011322	-0.006547	0.999914	
4289														-0.093955	-0.044351	9.787170	-0.340008	-0.940369	-0.010020	0.940354	-0.340092	0.008424	-0.011329	-0.006558	0.999914	
4290														-0.110470	-0.056931	9.772572	-0.339943	-0.940393	-0.010016	0.940377	-0.340028	0.008453	-0.011355	-0.006546	0.999914	
4291														-0.095789	-0.058959	9.758125	-0.339900	-0.940409	-0.009982	0.940393	-0.339984	0.008448	-0.011338	-0.006515	0.999914	
4292														-0.110482	-0.056037	9.787223	-0.339841	-0.940430	-0.009973	0.940414	-0.339925	0.008458	-0.011345	-0.006505	0.999914	
4293														-0.106370	-0.026878	9.786734	-0.339751	-0.940462	-0.009978	0.940447	-0.339835	0.008477	-0.011363	-0.006504	0.999914	
4294														-0.096226	-0.057517	9.802064	-0.339694	-0.940483	-0.009968	0.940467	-0.339778	0.008485	-0.011367	-0.006493	0.999914	
4295														-0.110649	-0.055389	9.787224	-0.339620	-0.940510	-0.009944	0.940494	-0.339704	0.008521	-0.011392	-0.006458	0.999914	
4296														-0.110682	-0.055123	9.787226	-0.339573	-0.940527	-0.009942	0.940511	-0.339658	0.008515	-0.011385	-0.006459	0.999914	
4297														-0.108689	-0.040095	9.801627	-0.339472	-0.940564	-0.009913	0.940547	-0.339556	0.008531	-0.011390	-0.006427	0.999914	
4298														-0.110501	-0.054872	9.787229	-0.339419	-0.940582	-0.009961	0.940566	-0.339504	0.008502	-0.011379	-0.006483	0.999914	
4299														-0.081298	-0.059140	9.787622	-0.339370	-0.940600	-0.009947	0.940584	-0.339454	0.008491	-0.011363	-0.006475	0.999914	
4300														-0.093648	-0.042309	9.787182	-0.339274	-0.940635	-0.009932	0.940619	-0.339358	0.008514	-0.011379	-0.006453	0.999914	
4301														-0.108090	-0.040187	9.786987	-0.339183	-0.940668	-0.009958	0.940652	-0.339267	0.008492	-0.011367	-0.006486	0.999914	
4302														-0.109903	-0.054964	9.772590	-0.339086	-0.940703	-0.009950	0.940687	-0.339170	0.008504	-0.011374	-0.006476	0.999914	
4303														-0.093733	-0.041778	9.801829	-0.339001	-0.940734	-0.009947	0.940717	-0.339085	0.008534	-0.011402	-0.006465	0.999914	
4304														-0.124420	-0.052415	9.772397	-0.338947	-0.940753	-0.009919	0.940737	-0.339031	0.008516	-0.011374	-0.006445	0.999915	
4305														-0.093115	-0.042076	9.757897	-0.338810	-0.940802	-0.009914	0.940786	-0.338894	0.008547	-0.011401	-0.006431	0.999914	
4306														-0.109736	-0.054131	9.772596	-0.338779	-0.940814	-0.009915	0.940797	-0.338862	0.008509	-0.011365	-0.006445	0.999915	
4307														-0.109565	-0.053669	9.787246	-0.338741	-0.940828	-0.009879	0.940811	-0.338824	0.008501	-0.011346	-0.006414	0.999915	
4308														-0.092756	-0.040944	9.787196	-0.338640	-0.940864	-0.009862	0.940848	-0.338723	0.008491	-0.011329	-0.006404	0.999915	
4309														-0.109210	-0.053166	9.787253	-0.338582	-0.940885	-0.009855	0.940868	-0.338665	0.008499	-0.011334	-0.006394	0.999915	
4310														-0.096714	-0.069478	9.787699	-0.338546	-0.940898	-0.009835	0.940881	-0.338629	0.008502	-0.011330	-0.006375	0.999915	
4311														-0.092333	-0.040497	9.772557	-0.338497	-0.940916	-0.009828	0.940899	-0.338580	0.008511	-0.011336	-0.006366	0.999915	
4312														-0.110973	-0.066999	9.787510	-0.338475	-0.940924	-0.009823	0.940907	-0.338558	0.008486	-0.011310	-0.006370	0.999916	
4313														-0.094393	-0.054257	9.802101	-0.338439	-0.940937	-0.009836	0.940920	-0.338522	0.008490	-0.011318	-0.006381	0.999916	
4314														-0.094222	-0.054321	9.787457	-0.338403	-0.940950	-0.009807	0.940933	-0.338486	0.008503	-0.011320	-0.006350	0.999916	
4315														-0.123355	-0.049583	9.801716	-0.338355	-0.940968	-0.009798	0.940950	-0.338437	0.008512	-0.011326	-0.006339	0.999916	
4316														-0.108636	-0.051777	9.787267	-0.338300	-0.940987	-0.009797	0.940970	-0.338383	0.008508	-0.011321	-0.006340	0.999916	
4317														-0.108729	-0.051346	9.801913	-0.338196	-0.941025	-0.009785	0.941007	-0.338279	0.008517	-0.011325	-0.006327	0.999916	
4318														-0.094058	-0.053485	9.787463	-0.338138	-0.941046	-0.009777	0.941028	-0.338220	0.008526	-0.011330	-0.006317	0.999916	
4319														-0.108289	-0.051591	9.772626	-0.338075	-0.941068	-0.009783	0.941051	-0.338158	0.008510	-0.011316	-0.006330	0.999916	
4320														-0.095791	-0.067904	9.773074	-0.337977	-0.941104	-0.009748	0.941086	-0.338059	0.008539	-0.011331	-0.006288	0.999916	
4321														-0.122787	-0.048620	9.787083	-0.337873	-0.941141	-0.009731	0.941124	-0.337955	0.008527	-0.011314	-0.006277	0.999916	
4322														-0.108025	-0.050978	9.772632	-0.337823	-0.941159	-0.009764	0.941142	-0.337905	0.008523	-0.011321	-0.006310	0.999916	
4323														-0.108171	-0.050596	9.787278	-0.337762	-0.941181	-0.009734	0.941163	-0.337844	0.008537	-0.011324	-0.006278	0.999916	
4324														-0.105762	-0.036124	9.772383	-0.337715	-0.941198	-0.009726	0.941180	-0.337797	0.008511	-0.011296	-0.006280	0.999916	
4325														-0.107728	-0.050310	9.787284	-0.337693	-0.941206	-0.009733	0.941189	-0.337775	0.008493	-0.011282	-0.006293	0.999917	
4326														-0.107664	-0.050155	9.787286	-0.337655	-0.941220	-0.009718	0.941202	-0.337737	0.008515	-0.011296	-0.006272	0.999917	
4327														-0.090917	-0.037798	9.772581	-0.337608	-0.941237	-0.009717	0.941219	-0.337689	0.008510	-0.011291	-0.006273	0.999917	
4328														-0.093241	-0.051798	9.787480	-0.337594	-0.941242	-0.009707	0.941224	-0.337675	0.008553	-0.011328	-0.006249	0.999916	
4329														-0.093285	-0.051636	9.787481	-0.337500	-0.941275	-0.009711	0.941258	-0.337582	0.008535	-0.011313	-0.006260	0.999916	
4330														-0.107404	-0.049647	9.772646	-0.337455	-0.941292	-0.009674	0.941274	-0.337536	0.008528	-0.011292	-0.006228	0.999917	
4331														-0.107528	-0.048730	9.801940	-0.337356	-0.941328	-0.009651	0.941309	-0.337437	0.008529	-0.011285	-0.006207	0.999917	
4332														-0.090368	-0.036943	9.757944	-0.337257	-0.941363	-0.009649	0.941345	-0.337338	0.008526	-0.011281	-0.006207	0.999917	
4333														-0.095047	-0.043432	9.765347	-0.337207	-0.941381	-0.009646	0.941363	-0.337288	0.008529	-0.011283	-0.006204	0.999917	
4334														-0.099727	-0.049922	9.772751	-0.337158	-0.941399	-0.009643	0.941380	-0.337239	0.008532	-0.011284	-0.006201	0.999917	
4335														-0.109404	-0.062660	9.802201	-0.337054	-0.941436	-0.009658	0.941417	-0.337135	0.008559	-0.011313	-0.006207	0.999917	
4336														-0.107377	-0.048105	9.801945	-0.336904	-0.941489	-0.009653	0.941471	-0.336985	0.008555	-0.011308	-0.006206	0.999917	
4337														-0.119436	-0.032047	9.772207	-0.336887	-0.941496	-0.009667	0.941477	-0.336968	0.008558	-0.011315	-0.006218	0.999917	
4338														-0.096389	-0.079766	9.758719	-0.336793	-0.941529	-0.009630	0.941511	-0.336874	0.008551	-0.011295	-0.006187	0.999917	
4339														-0.106670	-0.048544	9.758014	-0.336743	-0.941547	-0.009656	0.941529	-0.336824	0.008562	-0.011313	-0.006208	0.999917	
4340														-0.109046	-0.062374	9.787562	-0.336717	-0.941556	-0.009636	0.941538	-0.336798	0.008563	-0.011308	-0.006190	0.999917	
4341														-0.106850	-0.047673	9.787307	-0.336658	-0.941578	-0.009635	0.941559	-0.336739	0.008559	-0.011303	-0.006191	0.999917	
4342														-0.077836	-0.051606	9.787693	-0.336563	-0.941612	-0.009617	0.941593	-0.336644	0.008582	-0.011318	-0.006167	0.999917	
4343														-0.106566	-0.047648	9.772665	-0.336408	-0.941667	-0.009631	0.941648	-0.336489	0.008553	-0.011295	-0.006191	0.999917	
4344														-0.106603	-0.047269	9.787312	-0.336318	-0.941699	-0.009615	0.941681	-0.336399	0.008576	-0.011310	-0.006170	0.999917	
4345														-0.108820	-0.061492	9.787570	-0.336351	-0.941688	-0.009615	0.941668	-0.336432	0.008606	-0.011339	-0.006160	0.999917	
4346														-0.092189	-0.049236	9.772858	-0.336265	-0.941718	-0.009628	0.941699	-0.336346	0.008608	-0.011345	-0.006172	0.999917	
4347														-0.107090	-0.046486	9.801956	-0.336170	-0.941752	-0.009625	0.941733	-0.336252	0.008639	-0.011373	-0.006160	0.999916	
4348														-0.123552	-0.059035	9.787378	-0.336167	-0.941753	-0.009626	0.941734	-0.336248	0.008634	-0.011368	-0.006163	0.999916	
4349														-0.092412	-0.048525	9.787505	-0.336117	-0.941771	-0.009619	0.941752	-0.336198	0.008643	-0.011373	-0.006154	0.999916	
4350														-0.077533	-0.050905	9.758409	-0.336109	-0.941774	-0.009597	0.941754	-0.336190	0.008642	-0.011366	-0.006133	0.999917	
4351														-0.106714	-0.045885	9.787317	-0.336064	-0.941791	-0.009575	0.941771	-0.336145	0.008643	-0.011358	-0.006113	0.999917	
4352														-0.104625	-0.031176	9.787058	-0.336019	-0.941806	-0.009581	0.941786	-0.336100	0.008659	-0.011375	-0.006113	0.999917	
4353														-0.096035	-0.076986	9.773389	-0.335991	-0.941817	-0.009580	0.941797	-0.336071	0.008620	-0.011338	-0.006126	0.999917	
4354														-0.106231	-0.045760	9.787323	-0.335917	-0.941843	-0.009608	0.941824	-0.335998	0.008597	-0.011325	-0.006161	0.999917	
4355														-0.091415	-0.048076	9.772872	-0.335854	-0.941865	-0.009587	0.941846	-0.335934	0.008599	-0.011319	-0.006141	0.999917	
4356														-0.105737	-0.045753	9.772683	-0.335767	-0.941896	-0.009572	0.941877	-0.335848	0.008587	-0.011303	-0.006132	0.999917	
4357														-0.091220	-0.047392	9.787522	-0.335724	-0.941912	-0.009570	0.941893	-0.335805	0.008582	-0.011297	-0.006132	0.999917	
4358														-0.119907	-0.043494	9.772497	-0.335655	-0.941936	-0.009577	0.941917	-0.335735	0.008565	-0.011283	-0.006146	0.999917	
4359														-0.107318	-0.060023	9.772951	-0.335601	-0.941956	-0.009577	0.941937	-0.335681	0.008561	-0.011279	-0.006148	0.999917	
4360														-0.092953	-0.061598	9.787788	-0.335546	-0.941975	-0.009562	0.941956	-0.335626	0.008583	-0.011294	-0.006127	0.999917	
4361														-0.105572	-0.044581	9.801981	-0.335536	-0.941979	-0.009576	0.941960	-0.335616	0.008586	-0.011301	-0.006139	0.999917	
4362														-0.105307	-0.044769	9.787338	-0.335481	-0.941999	-0.009562	0.941979	-0.335561	0.008573	-0.011284	-0.006131	0.999918	
4363														-0.093009	-0.060736	9.802437	-0.335429	-0.942017	-0.009539	0.941998	-0.335509	0.008608	-0.011310	-0.006098	0.999917	
4364														-0.105525	-0.043948	9.801984	-0.334989	-0.942172	-0.009751	0.942155	-0.335071	0.008492	-0.011268	-0.006342	0.999916	
4365														-0.090715	-0.046488	9.772886	-0.334906	-0.942201	-0.009744	0.942184	-0.334988	0.008502	-0.011275	-0.006333	0.999916	
4366														-0.090595	-0.046285	9.772888	-0.334850	-0.942221	-0.009730	0.942204	-0.334932	0.008491	-0.011259	-0.006325	0.999917	
4367														-0.105078	-0.043780	9.787345	-0.334864	-0.942216	-0.009730	0.942199	-0.334946	0.008485	-0.011254	-0.006326	0.999917	
4368														-0.104808	-0.043864	9.772702	-0.334820	-0.942232	-0.009709	0.942215	-0.334901	0.008487	-0.011248	-0.006307	0.999917	
4369														-0.106817	-0.058209	9.772968	-0.334765	-0.942251	-0.009724	0.942234	-0.334847	0.008490	-0.011256	-0.006321	0.999917	
4370														-0.108935	-0.072427	9.787878	-0.334708	-0.942272	-0.009731	0.942255	-0.334789	0.008473	-0.011241	-0.006333	0.999917	
4371														-0.090074	-0.045635	9.772896	-0.334665	-0.942287	-0.009716	0.942270	-0.334746	0.008495	-0.011257	-0.006312	0.999917	
4372														-0.108551	-0.072534	9.758593	-0.334601	-0.942310	-0.009696	0.942293	-0.334682	0.008498	-0.011252	-0.006293	0.999917	
4373														-0.121261	-0.055176	9.787429	-0.334552	-0.942327	-0.009701	0.942310	-0.334633	0.008513	-0.011269	-0.006294	0.999917	
4374														-0.104672	-0.042538	9.787354	-0.334513	-0.942341	-0.009680	0.942324	-0.334595	0.008515	-0.011263	-0.006273	0.999917	
4375														-0.101975	-0.050320	9.780213	-0.334488	-0.942350	-0.009684	0.942333	-0.334569	0.008521	-0.011270	-0.006276	0.999917	
4376														-0.099278	-0.058101	9.773072	-0.334462	-0.942360	-0.009688	0.942342	-0.334543	0.008527	-0.011276	-0.006278	0.999917	
4377														-0.091766	-0.059329	9.758524	-0.334366	-0.942394	-0.009691	0.942376	-0.334447	0.008510	-0.011261	-0.006287	0.999917	
4378														-0.118773	-0.040018	9.787171	-0.334329	-0.942407	-0.009679	0.942389	-0.334410	0.008497	-0.011244	-0.006281	0.999917	
4379														-0.105883	-0.057128	9.758339	-0.334244	-0.942437	-0.009699	0.942419	-0.334325	0.008487	-0.011242	-0.006304	0.999917	
4380														-0.091681	-0.058618	9.787818	-0.334149	-0.942470	-0.009705	0.942453	-0.334230	0.008506	-0.011260	-0.006304	0.999917	
4381														-0.091672	-0.058513	9.787819	-0.334102	-0.942487	-0.009706	0.942470	-0.334183	0.008501	-0.011255	-0.006307	0.999917	
4382														-0.089475	-0.043812	9.787554	-0.334033	-0.942512	-0.009684	0.942494	-0.334114	0.008502	-0.011248	-0.006288	0.999917	
4383														-0.089159	-0.044185	9.758266	-0.334018	-0.942517	-0.009691	0.942499	-0.334099	0.008517	-0.011265	-0.006289	0.999917	
4384														-0.106068	-0.055641	9.802280	-0.333953	-0.942540	-0.009685	0.942523	-0.334034	0.008493	-0.011240	-0.006292	0.999917	
4385														-0.103564	-0.041190	9.787372	-0.333917	-0.942553	-0.009652	0.942536	-0.333998	0.008487	-0.011223	-0.006264	0.999917	
4386														-0.119876	-0.053812	9.772808	-0.333904	-0.942557	-0.009688	0.942540	-0.333986	0.008484	-0.011232	-0.006299	0.999917	
4387														-0.088740	-0.043299	9.772919	-0.333871	-0.942569	-0.009646	0.942552	-0.333952	0.008491	-0.011224	-0.006257	0.999917	
4388														-0.119828	-0.052951	9.787459	-0.333825	-0.942586	-0.009624	0.942568	-0.333906	0.008492	-0.011218	-0.006237	0.999918	
4389														-0.117628	-0.038143	9.787193	-0.333805	-0.942593	-0.009605	0.942575	-0.333886	0.008493	-0.011213	-0.006218	0.999918	
4390														-0.102812	-0.040360	9.772738	-0.333751	-0.942612	-0.009612	0.942595	-0.333831	0.008475	-0.011198	-0.006231	0.999918	
4391														-0.088207	-0.042438	9.772927	-0.333707	-0.942628	-0.009608	0.942610	-0.333787	0.008476	-0.011197	-0.006228	0.999918	
4392														-0.106904	-0.069307	9.773278	-0.333659	-0.942645	-0.009614	0.942627	-0.333739	0.008492	-0.011214	-0.006229	0.999918	
4393														-0.102803	-0.040255	9.772739	-0.333614	-0.942661	-0.009628	0.942643	-0.333694	0.008495	-0.011220	-0.006241	0.999918	
4394														-0.090114	-0.057021	9.758553	-0.333549	-0.942684	-0.009613	0.942666	-0.333629	0.008482	-0.011203	-0.006233	0.999918	
4395														-0.088011	-0.041977	9.772931	-0.333549	-0.942684	-0.009593	0.942666	-0.333629	0.008483	-0.011197	-0.006214	0.999918	
4396														-0.102694	-0.039345	9.787389	-0.333517	-0.942695	-0.009592	0.942677	-0.333597	0.008512	-0.011224	-0.006203	0.999918	
4397														-0.116990	-0.037646	9.757911	-0.333473	-0.942711	-0.009586	0.942693	-0.333553	0.008521	-0.011231	-0.006195	0.999918	
4398														-0.121516	-0.065604	9.802389	-0.333416	-0.942731	-0.009585	0.942713	-0.333496	0.008517	-0.011226	-0.006196	0.999918	
4399														-0.100428	-0.024384	9.787121	-0.333378	-0.942745	-0.009580	0.942727	-0.333458	0.008491	-0.011200	-0.006201	0.999918	
4400														-0.089709	-0.055656	9.773209	-0.333347	-0.942756	-0.009580	0.942738	-0.333427	0.008487	-0.011195	-0.006203	0.999918	
4401														-0.106261	-0.067642	9.787941	-0.333270	-0.942783	-0.009567	0.942765	-0.333350	0.008475	-0.011179	-0.006195	0.999918	
4402														-0.104178	-0.053039	9.787670	-0.333243	-0.942792	-0.009586	0.942774	-0.333323	0.008498	-0.011207	-0.006206	0.999918	
4403														-0.104075	-0.053173	9.773026	-0.333224	-0.942799	-0.009566	0.942781	-0.333304	0.008499	-0.011202	-0.006187	0.999918	
4404														-0.103809	-0.053265	9.758384	-0.333150	-0.942825	-0.009565	0.942807	-0.333230	0.008495	-0.011197	-0.006188	0.999918	
4405														-0.103793	-0.052928	9.773030	-0.333067	-0.942854	-0.009572	0.942837	-0.333147	0.008478	-0.011182	-0.006201	0.999918	
4406														-0.087064	-0.040692	9.758300	-0.333033	-0.942866	-0.009571	0.942848	-0.333113	0.008507	-0.011209	-0.006190	0.999918	
4407														-0.118315	-0.050488	9.772845	-0.332978	-0.942886	-0.009551	0.942868	-0.333058	0.008508	-0.011203	-0.006172	0.999918	
4408														-0.103650	-0.052646	9.758389	-0.332921	-0.942906	-0.009555	0.942888	-0.333001	0.008523	-0.011218	-0.006171	0.999918	
4409														-0.118494	-0.049925	9.787491	-0.332920	-0.942907	-0.009568	0.942888	-0.333000	0.008526	-0.011225	-0.006184	0.999918	
4410														-0.116156	-0.035520	9.772575	-0.332906	-0.942912	-0.009535	0.942893	-0.332986	0.008518	-0.011207	-0.006154	0.999918	
4411														-0.118107	-0.049817	9.772851	-0.332872	-0.942924	-0.009548	0.942905	-0.332952	0.008520	-0.011213	-0.006167	0.999918	
4412														-0.103598	-0.051781	9.773038	-0.332779	-0.942956	-0.009540	0.942938	-0.332859	0.008530	-0.011219	-0.006157	0.999918	
4413														-0.089187	-0.053504	9.787871	-0.332745	-0.942969	-0.009561	0.942950	-0.332825	0.008520	-0.011216	-0.006181	0.999918	
4414														-0.103485	-0.051684	9.773040	-0.332680	-0.942991	-0.009554	0.942973	-0.332760	0.008529	-0.011222	-0.006171	0.999918	
4415														-0.091441	-0.067436	9.802791	-0.332648	-0.943003	-0.009552	0.942984	-0.332728	0.008559	-0.011250	-0.006160	0.999918	
4416														-0.118000	-0.049031	9.772856	-0.332587	-0.943025	-0.009505	0.943006	-0.332666	0.008546	-0.011222	-0.006121	0.999918	
4417														-0.103720	-0.050242	9.802334	-0.332542	-0.943040	-0.009524	0.943021	-0.332622	0.008570	-0.011250	-0.006132	0.999918	
4418														-0.089205	-0.052101	9.802522	-0.332474	-0.943065	-0.009489	0.943045	-0.332554	0.008564	-0.011232	-0.006102	0.999918	
4419														-0.119614	-0.063165	9.758495	-0.332408	-0.943088	-0.009497	0.943069	-0.332488	0.008546	-0.011218	-0.006116	0.999918	
4420														-0.101104	-0.035702	9.787419	-0.332355	-0.943106	-0.009518	0.943088	-0.332435	0.008536	-0.011215	-0.006139	0.999918	
4421														-0.102976	-0.050451	9.773052	-0.332338	-0.943112	-0.009510	0.943094	-0.332418	0.008544	-0.011220	-0.006130	0.999918	
4422														-0.098817	-0.021243	9.772499	-0.332305	-0.943124	-0.009503	0.943105	-0.332385	0.008553	-0.011225	-0.006120	0.999918	
4423														-0.103093	-0.049729	9.787699	-0.332257	-0.943141	-0.009495	0.943122	-0.332336	0.008561	-0.011230	-0.006110	0.999918	
4424														-0.103279	-0.049266	9.802344	-0.332226	-0.943152	-0.009501	0.943133	-0.332305	0.008577	-0.011247	-0.006112	0.999918	
4425														-0.103176	-0.049405	9.787700	-0.332220	-0.943154	-0.009496	0.943135	-0.332299	0.008585	-0.011253	-0.006103	0.999918	
4426														-0.105121	-0.063595	9.787981	-0.332164	-0.943174	-0.009461	0.943155	-0.332243	0.008579	-0.011235	-0.006074	0.999918	
4427														-0.102926	-0.048894	9.787705	-0.332064	-0.943209	-0.009473	0.943190	-0.332143	0.008583	-0.011242	-0.006085	0.999918	
4428														-0.117417	-0.046720	9.787520	-0.332007	-0.943230	-0.009466	0.943210	-0.332086	0.008591	-0.011247	-0.006076	0.999918	
4429														-0.104822	-0.063140	9.787987	-0.331959	-0.943246	-0.009460	0.943227	-0.332038	0.008567	-0.011222	-0.006079	0.999919	
4430														-0.102620	-0.048199	9.802356	-0.331893	-0.943270	-0.009447	0.943250	-0.331972	0.008556	-0.011207	-0.006071	0.999919	
4431														-0.087456	-0.050877	9.758612	-0.331869	-0.943278	-0.009415	0.943259	-0.331948	0.008550	-0.011190	-0.006043	0.999919	
4432														-0.087565	-0.050019	9.787904	-0.331805	-0.943301	-0.009415	0.943282	-0.331883	0.008545	-0.011186	-0.006046	0.999919	
4433														-0.102009	-0.047900	9.787720	-0.331758	-0.943318	-0.009427	0.943298	-0.331836	0.008548	-0.011192	-0.006057	0.999919	
4434														-0.101783	-0.047705	9.787723	-0.331750	-0.943321	-0.009388	0.943301	-0.331828	0.008519	-0.011151	-0.006030	0.999920	
4435														-0.101493	-0.047355	9.787728	-0.331721	-0.943331	-0.009368	0.943312	-0.331799	0.008521	-0.011146	-0.006011	0.999920	
4436														-0.101225	-0.047350	9.773086	-0.331699	-0.943339	-0.009348	0.943320	-0.331777	0.008521	-0.011140	-0.005992	0.999920	
4437														-0.101446	-0.046586	9.802376	-0.331681	-0.943345	-0.009362	0.943326	-0.331759	0.008523	-0.011146	-0.006004	0.999920	
4438														-0.099023	-0.032544	9.772807	-0.331587	-0.943378	-0.009339	0.943359	-0.331665	0.008524	-0.011139	-0.005984	0.999920	
4439														-0.115522	-0.044715	9.772907	-0.331540	-0.943395	-0.009332	0.943375	-0.331618	0.008532	-0.011143	-0.005975	0.999920	
4440														-0.088672	-0.062892	9.788203	-0.331489	-0.943413	-0.009332	0.943393	-0.331566	0.008528	-0.011139	-0.005976	0.999920	
4441														-0.086546	-0.048344	9.787921	-0.331455	-0.943425	-0.009346	0.943405	-0.331533	0.008532	-0.011148	-0.005989	0.999920	
4442														-0.115292	-0.044413	9.772911	-0.331436	-0.943431	-0.009335	0.943412	-0.331514	0.008519	-0.011132	-0.005983	0.999920	
4443														-0.117250	-0.058815	9.773196	-0.331414	-0.943439	-0.009332	0.943420	-0.331491	0.008518	-0.011130	-0.005981	0.999920	
4444														-0.100917	-0.045967	9.787740	-0.331386	-0.943449	-0.009331	0.943429	-0.331464	0.008547	-0.011156	-0.005970	0.999920	
4445														-0.102980	-0.060360	9.788024	-0.331325	-0.943470	-0.009338	0.943451	-0.331403	0.008529	-0.011141	-0.005984	0.999920	
4446														-0.115294	-0.043696	9.787559	-0.331265	-0.943492	-0.009330	0.943472	-0.331343	0.008538	-0.011147	-0.005975	0.999920	
4447														-0.104739	-0.075020	9.773666	-0.331196	-0.943515	-0.009351	0.943496	-0.331274	0.008528	-0.011144	-0.005998	0.999920	
4448														-0.100518	-0.045626	9.787746	-0.331126	-0.943541	-0.009324	0.943521	-0.331203	0.008510	-0.011117	-0.005980	0.999920	
4449														-0.116671	-0.058116	9.773207	-0.331114	-0.943545	-0.009312	0.943525	-0.331191	0.008497	-0.011101	-0.005973	0.999921	
4450														-0.085729	-0.047344	9.787933	-0.331038	-0.943571	-0.009332	0.943552	-0.331115	0.008521	-0.011130	-0.005984	0.999920	
4451														-0.116897	-0.057593	9.787852	-0.331000	-0.943585	-0.009325	0.943565	-0.331078	0.008529	-0.011136	-0.005976	0.999920	
4452														-0.114620	-0.043248	9.772924	-0.330960	-0.943599	-0.009325	0.943579	-0.331037	0.008525	-0.011131	-0.005978	0.999920	
4453														-0.104282	-0.073803	9.788324	-0.330900	-0.943620	-0.009305	0.943600	-0.330977	0.008526	-0.011125	-0.005959	0.999920	
4454														-0.114516	-0.042536	9.787573	-0.330817	-0.943649	-0.009304	0.943630	-0.330894	0.008521	-0.011120	-0.005961	0.999920	
4455														-0.099944	-0.044345	9.787758	-0.330804	-0.943654	-0.009277	0.943634	-0.330881	0.008535	-0.011124	-0.005931	0.999921	
4456														-0.101917	-0.058990	9.773399	-0.330761	-0.943669	-0.009305	0.943649	-0.330838	0.008545	-0.011142	-0.005954	0.999920	
4457														-0.116464	-0.056866	9.773217	-0.330697	-0.943691	-0.009297	0.943671	-0.330774	0.008554	-0.011147	-0.005944	0.999920	
4458														-0.102132	-0.058218	9.802690	-0.330655	-0.943706	-0.009305	0.943686	-0.330732	0.008536	-0.011133	-0.005959	0.999920	
4459														-0.099612	-0.044191	9.773117	-0.330605	-0.943724	-0.009284	0.943704	-0.330682	0.008538	-0.011127	-0.005939	0.999920	
4460														-0.084790	-0.046212	9.758658	-0.330579	-0.943733	-0.009251	0.943713	-0.330655	0.008531	-0.011110	-0.005910	0.999921	
4461														-0.115958	-0.055596	9.787874	-0.330526	-0.943752	-0.009229	0.943731	-0.330603	0.008531	-0.011103	-0.005890	0.999921	
4462														-0.099207	-0.042915	9.787771	-0.330464	-0.943774	-0.009216	0.943754	-0.330540	0.008519	-0.011086	-0.005882	0.999921	
4463														-0.115603	-0.055093	9.787881	-0.330440	-0.943782	-0.009196	0.943762	-0.330516	0.008520	-0.011081	-0.005864	0.999921	
4464														-0.101091	-0.057057	9.788064	-0.330337	-0.943818	-0.009222	0.943798	-0.330413	0.008530	-0.011098	-0.005886	0.999921	
4465														-0.086522	-0.058972	9.788247	-0.330328	-0.943821	-0.009190	0.943801	-0.330404	0.008523	-0.011081	-0.005858	0.999921	
4466														-0.115153	-0.054847	9.773244	-0.330302	-0.943831	-0.009177	0.943810	-0.330378	0.008510	-0.011064	-0.005850	0.999922	
4467														-0.098365	-0.042325	9.773138	-0.330264	-0.943844	-0.009185	0.943824	-0.330339	0.008492	-0.011050	-0.005864	0.999922	
4468														-0.100322	-0.056727	9.773429	-0.330213	-0.943862	-0.009179	0.943842	-0.330289	0.008501	-0.011056	-0.005857	0.999922	
4469														-0.100257	-0.056573	9.773431	-0.330175	-0.943875	-0.009180	0.943855	-0.330251	0.008497	-0.011051	-0.005860	0.999922	
4470														-0.100144	-0.056475	9.773433	-0.330163	-0.943879	-0.009184	0.943859	-0.330239	0.008492	-0.011048	-0.005864	0.999922	
4471														-0.100301	-0.055646	9.802724	-0.330156	-0.943882	-0.009164	0.943862	-0.330231	0.008493	-0.011043	-0.005846	0.999922	
4472														-0.114544	-0.053688	9.787902	-0.330099	-0.943902	-0.009165	0.943882	-0.330174	0.008488	-0.011038	-0.005849	0.999922	
4473														-0.114475	-0.053536	9.787903	-0.330017	-0.943930	-0.009158	0.943910	-0.330093	0.008496	-0.011043	-0.005840	0.999922	
4474														-0.099956	-0.055393	9.788085	-0.329982	-0.943943	-0.009151	0.943923	-0.330057	0.008504	-0.011048	-0.005832	0.999922	
4475														-0.099862	-0.055545	9.773441	-0.329944	-0.943956	-0.009157	0.943936	-0.330020	0.008521	-0.011066	-0.005832	0.999922	
4476														-0.100138	-0.054916	9.802730	-0.329892	-0.943974	-0.009179	0.943954	-0.329968	0.008512	-0.011063	-0.005857	0.999922	
4477														-0.097729	-0.040892	9.773151	-0.329859	-0.943986	-0.009151	0.943965	-0.329934	0.008525	-0.011067	-0.005826	0.999922	
4478														-0.099679	-0.055188	9.773445	-0.329786	-0.944011	-0.009158	0.943991	-0.329861	0.008508	-0.011052	-0.005839	0.999922	
4479														-0.097695	-0.040431	9.787797	-0.329715	-0.944036	-0.009184	0.944016	-0.329791	0.008518	-0.011070	-0.005861	0.999922	
4480														-0.099757	-0.054825	9.788090	-0.329673	-0.944051	-0.009164	0.944030	-0.329748	0.008519	-0.011064	-0.005843	0.999922	
4481														-0.115743	-0.067949	9.744273	-0.329638	-0.944063	-0.009151	0.944043	-0.329714	0.008507	-0.011048	-0.005835	0.999922	
4482														-0.087198	-0.070311	9.817858	-0.329594	-0.944079	-0.009139	0.944058	-0.329669	0.008494	-0.011031	-0.005828	0.999922	
4483														-0.097028	-0.039991	9.773161	-0.329567	-0.944088	-0.009132	0.944068	-0.329642	0.008501	-0.011036	-0.005819	0.999922	
4484														-0.099219	-0.053963	9.788100	-0.329397	-0.944146	-0.009268	0.944127	-0.329473	0.008495	-0.011074	-0.005952	0.999921	
4485														-0.097079	-0.039205	9.787808	-0.329398	-0.944146	-0.009249	0.944126	-0.329474	0.008496	-0.011069	-0.005934	0.999921	
4486														-0.115459	-0.066142	9.773576	-0.329355	-0.944161	-0.009230	0.944141	-0.329431	0.008497	-0.011063	-0.005916	0.999921	
4487														-0.096803	-0.039002	9.773167	-0.329341	-0.944166	-0.009237	0.944146	-0.329418	0.008513	-0.011081	-0.005917	0.999921	
4488														-0.098970	-0.053388	9.773462	-0.329265	-0.944192	-0.009243	0.944172	-0.329342	0.008529	-0.011097	-0.005918	0.999921	
